ax  ay  az  gx  gy  gz  mx  my  mz  seq tempC
0.11094588041305542 -0.18870578706264496 9.771639823913574 -0.009507225826382637 -0.006418051663786173 0.007390995509922504 26.58670997619629 -14.613770484924316 30.071022033691406 64675 25.921077728271484
0.10709869861602783 -0.1934410035610199 9.797808647155762 -0.011252728290855885 -0.007661125622689724 0.00869841780513525 25.42961311340332 -14.593070983886719 31.643321990966797 64676 25.873153686523438
0.11962783336639404 -0.17199468612670898 9.795429229736328 -0.010386466979980469 -0.006962531711906195 0.009279023855924606 25.72451400756836 -14.446221351623535 31.80712127685547 64677 25.68146324157715
0.12804967164993286 -0.20536857843399048 9.78829288482666 -0.01038849726319313 -0.007826474495232105 0.01018944475799799 25.854110717773438 -15.484220504760742 30.05107307434082 64678 25.873153686523438
0.13420641422271729 -0.198196142911911 9.807324409484863 -0.009366516955196857 -0.006989512126892805 0.0075940475799143314 25.71746253967285 -15.617572784423828 30.99877166748047 64679 25.873153686523438
0.11284250020980835 -0.19104070961475372 9.812082290649414 -0.010619757696986198 -0.010439122095704079 0.008243998512625694 25.71746253967285 -15.617572784423828 30.99877166748047 64680 25.77730941772461
0.12231290340423584 -0.22919529676437378 9.793050765991211 -0.007029288448393345 -0.006650867871940136 0.006723755970597267 26.15201187133789 -15.043070793151855 30.535873413085938 64681 26.112768173217773
0.09343177080154419 -0.20059926807880402 9.790671348571777 -0.00978819653391838 -0.004862282425165176 0.009721198119223118 26.15201187133789 -15.043070793151855 30.535873413085938 64682 25.921077728271484
0.10990440845489502 -0.20535153150558472 9.802566528320312 -0.009581868536770344 -0.00806663278490305 0.007742159068584442 26.450212478637695 -14.892322540283203 31.01677131652832 64683 25.873153686523438
0.10908621549606323 -0.1791415810585022 9.797808647155762 -0.005645942874252796 -0.00850528571754694 0.008092657662928104 23.959312438964844 -14.595470428466797 31.309722900390625 64684 25.873153686523438
0.11341583728790283 -0.19582711160182953 9.795429229736328 -0.008738121017813683 -0.00843278132379055 0.013391345739364624 26.453962326049805 -13.724870681762695 31.50802230834961 64685 25.873153686523438
0.12119019031524658 -0.20057937502861023 9.807324409484863 -0.013198122382164001 -0.00885864533483982 0.00951120350509882 25.124658584594727 -14.606420516967773 30.53017234802246 64686 25.921077728271484
0.10824084281921387 -0.2053714245557785 9.785913467407227 -0.007407692261040211 -0.005533259361982346 0.007048934232443571 25.12885856628418 -15.473719596862793 30.8355712890625 64687 25.921077728271484
0.11663919687271118 -0.2006077915430069 9.78353500366211 -0.009267049841582775 -0.005687407683581114 0.008688650093972683 25.284862518310547 -14.881372451782227 31.796321868896484 64688 25.9689998626709
0.09680622816085815 -0.21965380012989044 9.800187110900879 -0.010915566235780716 -0.006905169691890478 0.009264792315661907 25.284862518310547 -14.881372451782227 31.796321868896484 64689 25.729385375976562
0.11105424165725708 -0.18152765929698944 9.795429229736328 -0.011245395056903362 -0.009994224645197392 0.011697353795170784 25.8706111907959 -15.464720726013184 31.636571884155273 64690 25.921077728271484
0.11658847332000732 -0.21491006016731262 9.781155586242676 -0.009619670920073986 -0.007566041313111782 0.008765025064349174 25.8706111907959 -15.464720726013184 31.636571884155273 64691 25.585617065429688
0.09322535991668701 -0.20298534631729126 9.78829288482666 -0.007896510884165764 -0.004699696786701679 0.007837721146643162 25.281112670898438 -14.449670791625977 31.48507308959961 64692 26.06484603881836
0.11710268259048462 -0.1815333515405655 9.790671348571777 -0.009228799492120743 -0.005775150842964649 0.010402089916169643 24.82781219482422 -14.464820861816406 30.211721420288086 64693 25.873153686523438
0.10641688108444214 -0.19583280384540558 9.790671348571777 -0.010249199345707893 -0.006161018740385771 0.009350760839879513 26.00756072998047 -15.621771812438965 30.68497085571289 64694 25.77730941772461
0.09923791885375977 -0.20296545326709747 9.80494499206543 -0.009592816233634949 -0.0070485747419297695 0.009300371631979942 26.151561737060547 -14.607470512390137 30.541723251342773 64695 25.68146324157715
0.12502574920654297 -0.17677541077136993 9.78353500366211 -0.008712164126336575 -0.008741011843085289 0.008454078808426857 25.412813186645508 -14.322171211242676 30.061721801757812 64696 25.921077728271484
0.11814677715301514 -0.18867169320583344 9.800187110900879 -0.011247253976762295 -0.008170156739652157 0.007919312454760075 27.17546272277832 -14.90282154083252 30.232271194458008 64697 25.921077728271484
0.11225420236587524 -0.20058220624923706 9.80494499206543 -0.010341159999370575 -0.0071082087233662605 0.006566629745066166 27.17546272277832 -14.90282154083252 30.232271194458008 64698 25.921077728271484
0.11106604337692261 -0.200596421957016 9.793050765991211 -0.00854945182800293 -0.005185115151107311 0.00801942590624094 26.582361221313477 -13.60127067565918 29.7675724029541 64699 25.9689998626709
0.12744969129562378 -0.19584132730960846 9.78353500366211 -0.009893136098980904 -0.005655358079820871 0.009405700489878654 26.582361221313477 -13.60127067565918 29.7675724029541 64700 25.9689998626709
0.1106531023979187 -0.20536857843399048 9.78829288482666 -0.008591316640377045 -0.00641241017729044 0.010863134637475014 25.136659622192383 -15.02837085723877 31.634170532226562 64701 25.77730941772461
0.12687623500823975 -0.19105492532253265 9.800187110900879 -0.00838639959692955 -0.007379843853414059 0.007842359133064747 25.712512969970703 -14.024271011352539 30.703121185302734 64702 25.873153686523438
0.10126131772994995 -0.18869158625602722 9.78353500366211 -0.009565959684550762 -0.00653110770508647 0.009835716336965561 25.281862258911133 -15.175670623779297 31.475322723388672 64703 25.921077728271484
0.15251529216766357 -0.17437511682510376 9.797808647155762 -0.007145174778997898 -0.006425884552299976 0.007966471835970879 27.330108642578125 -16.20197296142578 30.85057258605957 64704 25.77730941772461
0.10972189903259277 -0.18869441747665405 9.781155586242676 -0.00736848171800375 -0.008270768448710442 0.007067804224789143 24.69326400756836 -15.031821250915527 31.312122344970703 64705 25.921077728271484
0.10015016794204712 -0.17914442718029022 9.795429229736328 -0.010829977691173553 -0.0062746466137468815 0.007355416659265757 25.730663299560547 -15.601972579956055 32.26716995239258 64706 25.537694931030273
0.12769901752471924 -0.2149072140455246 9.78353500366211 -0.010090037249028683 -0.007395623717457056 0.006306072697043419 25.730663299560547 -15.601972579956055 32.26716995239258 64707 26.06484603881836
0.12060248851776123 -0.15294016897678375 9.785913467407227 -0.009330295957624912 -0.007941198535263538 0.010217907838523388 27.181161880493164 -15.622971534729004 30.698171615600586 64708 25.537694931030273
0.11534571647644043 -0.17440353333950043 9.774019241333008 -0.009346204809844494 -0.00947672501206398 0.008124351501464844 27.181161880493164 -15.622971534729004 30.698171615600586 64709 25.77730941772461
0.09965550899505615 -0.1958356350660324 9.78829288482666 -0.009968227706849575 -0.00771678751334548 0.007020557764917612 25.277360916137695 -15.617122650146484 30.99382209777832 64710 25.729385375976562
0.09596866369247437 -0.21012938022613525 9.793050765991211 -0.009369509294629097 -0.005203690379858017 0.010199038311839104 26.15456199645996 -14.313170433044434 30.862722396850586 64711 25.77730941772461
0.11523985862731934 -0.20536574721336365 9.790671348571777 -0.01028789859265089 -0.00648612342774868 0.004901014734059572 26.15456199645996 -14.313170433044434 30.862722396850586 64712 25.729385375976562
0.10736745595932007 -0.19582143425941467 9.800187110900879 -0.009361042641103268 -0.007498541381210089 0.006814941298216581 26.600360870361328 -15.033770561218262 31.333572387695312 64713 25.729385375976562
0.10178714990615845 -0.17438364028930664 9.790671348571777 -0.008704659529030323 -0.0083860969170928 0.006764552090317011 26.600360870361328 -15.033770561218262 31.333572387695312 64714 25.729385375976562
0.10921090841293335 -0.18867453932762146 9.797808647155762 -0.009110881015658379 -0.005136190447956324 0.008248955011367798 25.434263229370117 -14.296821594238281 32.12287521362305 64715 25.921077728271484
0.0993242859840393 -0.1886887401342392 9.785913467407227 -0.01106219831854105 -0.006237528752535582 0.00710454024374485 25.434263229370117 -14.296821594238281 32.12287521362305 64716 25.921077728271484
0.1070868968963623 -0.17437227070331573 9.800187110900879 -0.011110946536064148 -0.004718877840787172 0.009685618802905083 25.434263229370117 -14.296821594238281 32.12287521362305 64717 25.9689998626709
0.1066662073135376 -0.21489869058132172 9.790671348571777 -0.009145690128207207 -0.006421420257538557 0.006666829343885183 26.015361785888672 -15.176420211791992 31.483572006225586 64718 25.77730941772461
0.08730608224868774 -0.2101549506187439 9.771639823913574 -0.011091086082160473 -0.007618938107043505 0.007479615975171328 26.015361785888672 -15.176420211791992 31.483572006225586 64719 25.921077728271484
0.12716913223266602 -0.17439216375350952 9.78353500366211 -0.011705774813890457 -0.008192100562155247 0.009374760091304779 25.858610153198242 -15.042771339416504 30.532573699951172 64720 25.921077728271484
0.12151414155960083 -0.18629983067512512 9.790671348571777 -0.011161216534674168 -0.007126783952116966 0.008746243081986904 25.27286148071289 -14.459421157836914 30.69232177734375 64721 25.873153686523438
0.10749214887619019 -0.20535437762737274 9.800187110900879 -0.009415265172719955 -0.005470861215144396 0.010175125673413277 25.142059326171875 -15.458120346069336 32.103973388671875 64722 25.68146324157715
0.10230541229248047 -0.19582995772361755 9.793050765991211 -0.009534701704978943 -0.010036379098892212 0.008807807229459286 26.01911163330078 -15.608121871948242 31.79482078552246 64723 25.77730941772461
0.10001778602600098 -0.20536574721336365 9.790671348571777 -0.007312290836125612 -0.005959042813628912 0.009964379481971264 26.1643123626709 -15.755420684814453 31.635971069335938 64724 25.537694931030273
0.09822964668273926 -0.19585269689559937 9.774019241333008 -0.01038894709199667 -0.0082393242046237 0.007453138940036297 25.288911819458008 -14.004321098327637 32.283668518066406 64725 25.77730941772461
0.09206366539001465 -0.20774045586585999 9.797808647155762 -0.011179155670106411 -0.00952625460922718 0.007563106715679169 25.288911819458008 -14.004321098327637 32.283668518066406 64726 25.873153686523438
0.12966704368591309 -0.21729329228401184 9.781155586242676 -0.008157619275152683 -0.006043989211320877 0.007961920462548733 24.823760986328125 -13.742721557617188 29.90437126159668 64727 25.921077728271484
0.12084728479385376 -0.17436374723911285 9.807324409484863 -0.009443639777600765 -0.009914886206388474 0.006119325757026672 24.823760986328125 -13.742721557617188 29.90437126159668 64728 25.77730941772461
0.09681087732315063 -0.21729612350463867 9.778777122497559 -0.009937930852174759 -0.008572294376790524 0.007687218952924013 25.42961311340332 -14.593070983886719 31.643321990966797 64729 25.921077728271484
0.11206406354904175 -0.21967937052249908 9.778777122497559 -0.009551571682095528 -0.008922139182686806 0.008408819325268269 25.27286148071289 -14.459421157836914 30.69232177734375 64730 25.9689998626709
0.11630797386169434 -0.19346091151237488 9.781155586242676 -0.010830149054527283 -0.008962658233940601 0.012043879367411137 24.69251251220703 -14.305821418762207 31.32187271118164 64731 25.77730941772461
0.1248815655708313 -0.18392795324325562 9.781155586242676 -0.009661363437771797 -0.006105324719101191 0.006920270621776581 25.421361923217773 -14.60282039642334 30.85057258605957 64732 25.921077728271484
0.12450683116912842 -0.21250976622104645 9.795429229736328 -0.012080118060112 -0.005346604622900486 0.007879095152020454 26.59585952758789 -15.4752197265625 30.85207176208496 64733 25.9689998626709
0.10769152641296387 -0.18154187500476837 9.78353500366211 -0.007990503683686256 -0.006510831881314516 0.0059640114195644855 26.6081600189209 -14.588420867919922 32.13217544555664 64734 25.921077728271484
0.10727393627166748 -0.18867169320583344 9.800187110900879 -0.009832371026277542 -0.004678358323872089 0.006050558295100927 26.6081600189209 -14.588420867919922 32.13217544555664 64735 25.9689998626709
0.1036689281463623 -0.19104640185832977 9.807324409484863 -0.009868761524558067 -0.006414683070033789 0.008115162141621113 24.103309631347656 -15.180320739746094 30.98647117614746 64736 25.729385375976562
0.1236886978149414 -0.18629983067512512 9.790671348571777 -0.009241265244781971 -0.008683649823069572 0.008439847268164158 24.103309631347656 -15.180320739746094 30.98647117614746 64737 25.77730941772461
0.0956733226776123 -0.20300808548927307 9.769261360168457 -0.010982704348862171 -0.008198837749660015 0.007926428690552711 24.395658493041992 -15.7633695602417 30.823421478271484 64738 25.77730941772461
0.11473339796066284 -0.20298819243907928 9.785913467407227 -0.008157619275152683 -0.006043989211320877 0.007961920462548733 24.69326400756836 -15.031821250915527 31.312122344970703 64739 25.77730941772461
0.11336523294448853 -0.21012938022613525 9.793050765991211 -0.009849240072071552 -0.003564118407666683 0.005651569925248623 27.172462463378906 -15.197120666503906 29.911272048950195 64740 25.585617065429688
0.10489296913146973 -0.19105777144432068 9.797808647155762 -0.009817083366215229 -0.0062436931766569614 0.010096273384988308 26.156511306762695 -16.200773239135742 30.837371826171875 64741 25.77730941772461
0.1330999732017517 -0.18629130721092224 9.797808647155762 -0.008113895542919636 -0.006640762090682983 0.008896254003047943 25.428863525390625 -13.867071151733398 31.6530704498291 64742 25.873153686523438
0.10755443572998047 -0.21012085676193237 9.800187110900879 -0.00937605183571577 -0.008208369836211205 0.010193995200097561 25.699764251708984 -14.475471496582031 29.428871154785156 64743 25.9689998626709
0.11818969249725342 -0.2101236879825592 9.797808647155762 -0.008218834176659584 -0.007433837279677391 0.00858075637370348 25.435012817382812 -15.022821426391602 32.11312484741211 64744 25.921077728271484
0.08194667100906372 -0.22918392717838287 9.802566528320312 -0.00888819620013237 -0.0063921669498085976 0.011099779047071934 24.391159057617188 -14.605670928955078 30.521923065185547 64745 25.921077728271484
0.12295633554458618 -0.20299386978149414 9.781155586242676 -0.008919390849769115 -0.00636235810816288 0.00496050575748086 24.391159057617188 -14.605670928955078 30.521923065185547 64746 25.9689998626709
0.10668575763702393 -0.19821318984031677 9.793050765991211 -0.009061683900654316 -0.006241993047297001 0.008404182270169258 26.740612030029297 -15.186921119689941 30.699071884155273 64747 26.06484603881836
0.12076544761657715 -0.18628276884555817 9.80494499206543 -0.007435170002281666 -0.009151587262749672 0.00846574641764164 26.740612030029297 -15.186921119689941 30.699071884155273 64748 25.921077728271484
0.1018301248550415 -0.1958356350660324 9.78829288482666 -0.008635041303932667 -0.005815638229250908 0.009928800165653229 26.167762756347656 -14.297571182250977 32.13112258911133 64749 25.873153686523438
0.10190260410308838 -0.18863190710544586 9.83349323272705 -0.010110520757734776 -0.007596422918140888 0.010464233346283436 24.5443115234375 -16.051969528198242 30.97972297668457 64750 25.729385375976562
0.12020844221115112 -0.19820749759674072 9.797808647155762 -0.011371095664799213 -0.008712935261428356 0.008115248754620552 26.160263061523438 -15.033320426940918 31.328622817993164 64751 25.537694931030273
0.12330693006515503 -0.19345521926879883 9.785913467407227 -0.009396812878549099 -0.006134005729109049 0.00692738639190793 26.007110595703125 -15.18617057800293 30.690820693969727 64752 25.77730941772461
0.10761678218841553 -0.2148873209953308 9.800187110900879 -0.00842561200261116 -0.00464233523234725 0.007823489606380463 24.84176254272461 -15.175220489501953 31.470373153686523 64753 25.873153686523438
0.11419576406478882 -0.1982274055480957 9.781155586242676 -0.008348597213625908 -0.007880435325205326 0.00681949220597744 25.712963104248047 -14.459871292114258 30.6972713470459 64754 25.873153686523438
0.11370408535003662 -0.18152198195457458 9.800187110900879 -0.009806585498154163 -0.007674599997699261 0.005801755003631115 25.712963104248047 -14.459871292114258 30.6972713470459 64755 25.873153686523438
0.12318938970565796 -0.2053486853837967 9.80494499206543 -0.008827879093587399 -0.005828015506267548 0.0050083305686712265 25.28156280517578 -14.885272026062012 31.479223251342773 64756 25.873153686523438
0.12562572956085205 -0.18630266189575195 9.78829288482666 -0.0068671973422169685 -0.006195831578224897 0.008241260424256325 25.28156280517578 -14.885272026062012 31.479223251342773 64757 25.921077728271484
0.08820921182632446 -0.1910492330789566 9.80494499206543 -0.00953363161534071 -0.006522669922560453 0.009591956622898579 25.28156280517578 -14.885272026062012 31.479223251342773 64758 25.873153686523438
0.12654513120651245 -0.18390804529190063 9.797808647155762 -0.010472504422068596 -0.008005902171134949 0.008452093228697777 25.268661499023438 -15.19127082824707 30.206920623779297 64759 25.873153686523438
0.10248064994812012 -0.1910606026649475 9.795429229736328 -0.011178535409271717 -0.006425393745303154 0.005610948894172907 25.268661499023438 -15.19127082824707 30.206920623779297 64760 25.921077728271484
0.1307188868522644 -0.1886773705482483 9.795429229736328 -0.009331706911325455 -0.005704282782971859 0.009176171384751797 24.399860382080078 -15.03152084350586 31.308822631835938 64761 25.873153686523438
0.14656496047973633 -0.17916148900985718 9.781155586242676 -0.009290463291108608 -0.0075778476893901825 0.008284620940685272 24.399860382080078 -15.03152084350586 31.308822631835938 64762 25.729385375976562
0.11845135688781738 -0.19107764959335327 9.781155586242676 -0.009658882394433022 -0.004828532692044973 0.00874615553766489 24.700763702392578 -14.296072006225586 32.1146240234375 64763 25.9689998626709
0.11092650890350342 -0.2053913176059723 9.769261360168457 -0.009587341919541359 -0.007557603996247053 0.008521264418959618 26.467912673950195 -16.034420013427734 32.586669921875 64764 26.06484603881836
0.1391671895980835 -0.22679217159748077 9.80970287322998 -0.010752514004707336 -0.009099899791181087 0.009087725542485714 26.467912673950195 -16.034420013427734 32.586669921875 64765 25.921077728271484
0.11508399248123169 -0.19344954192638397 9.790671348571777 -0.010698803700506687 -0.008064964786171913 0.0101584168151021 25.849910736083984 -14.616920471191406 29.74567222595215 64766 25.921077728271484
0.11863839626312256 -0.20537710189819336 9.781155586242676 -0.009741478599607944 -0.0072448765859007835 0.008050540462136269 25.849910736083984 -14.616920471191406 29.74567222595215 64767 26.06484603881836
0.1362367868423462 -0.2053486853837967 9.80494499206543 -0.01192005816847086 -0.005755511578172445 0.01030701957643032 24.108261108398438 -15.174469947814941 31.462121963500977 64768 25.729385375976562
0.11079716682434082 -0.1982160359621048 9.790671348571777 -0.00822086539119482 -0.008297781459987164 0.009491178207099438 24.108261108398438 -15.174469947814941 31.462121963500977 64769 25.77730941772461
0.09592121839523315 -0.19103503227233887 9.816841125488281 -0.008962666615843773 -0.005352736450731754 0.0067624785006046295 25.12765884399414 -14.31212043762207 30.851171493530273 64770 25.77730941772461
0.12374651432037354 -0.19342395663261414 9.812082290649414 -0.008150734938681126 -0.00878993608057499 0.008224550634622574 24.85331153869629 -15.16157054901123 32.58021926879883 64771 25.873153686523438
0.12395292520523071 -0.1910378783941269 9.814460754394531 -0.010362091474235058 -0.007721856236457825 0.00798848457634449 25.13290786743164 -14.596670150756836 31.322921752929688 64772 25.9689998626709
0.10785901546478271 -0.2125268280506134 9.781155586242676 -0.010680864565074444 -0.005665495991706848 0.011341553181409836 26.74106216430664 -15.622522354125977 30.693222045898438 64773 25.873153686523438
0.10321301221847534 -0.17436657845973969 9.80494499206543 -0.010152213275432587 -0.006135706324130297 0.008619478903710842 26.74106216430664 -15.622522354125977 30.693222045898438 64774 25.729385375976562
0.11771893501281738 -0.20777170360088348 9.771639823913574 -0.00938541628420353 -0.006739215925335884 0.008105481043457985 26.438213348388672 -14.47037124633789 29.91277313232422 64775 25.873153686523438
0.09192413091659546 -0.21253535151481628 9.774019241333008 -0.009472417645156384 -0.0051328218542039394 0.008973119780421257 26.438213348388672 -14.47037124633789 29.91277313232422 64776 25.441848754882812
0.1256880760192871 -0.1910691261291504 9.78829288482666 -0.008586293086409569 -0.0073342882096767426 0.007347722537815571 25.133808135986328 -15.467869758605957 31.311222076416016 64777 26.06484603881836
0.1032177209854126 -0.17200890183448792 9.78353500366211 -0.01286237221211195 -0.005865771789103746 0.009035841561853886 24.103010177612305 -14.889922142028809 30.990371704101562 64778 25.921077728271484
0.12765157222747803 -0.1958129107952118 9.807324409484863 -0.009989160113036633 -0.008330435492098331 0.008442412130534649 25.267911911010742 -14.46527099609375 30.216670989990234 64779 25.9689998626709
0.12080836296081543 -0.20773476362228394 9.802566528320312 -0.009504745714366436 -0.005141259636729956 0.009216880425810814 26.44691276550293 -14.896222114562988 30.699670791625977 64780 25.873153686523438
0.11263597011566162 -0.19342680275440216 9.80970287322998 -0.011949393898248672 -0.007549770642071962 0.007945789955556393 25.288911819458008 -14.004321098327637 32.283668518066406 64781 25.873153686523438
0.1272190809249878 -0.21727055311203003 9.800187110900879 -0.010106007568538189 -0.0054556867107748985 0.011379697360098362 25.137109756469727 -15.463970184326172 31.628320693969727 64782 25.68146324157715
0.12273812294006348 -0.18631118535995483 9.781155586242676 -0.009675861336290836 -0.009877767413854599 0.005868449807167053 25.137109756469727 -15.463970184326172 31.628320693969727 64783 25.921077728271484
0.13092541694641113 -0.18629130721092224 9.797808647155762 -0.009743510745465755 -0.008108820766210556 0.008960961364209652 27.174562454223633 -14.031620025634766 30.24397087097168 64784 25.873153686523438
0.12654966115951538 -0.18155039846897125 9.776397705078125 -0.009067606180906296 -0.006145812105387449 0.006446981802582741 27.174562454223633 -14.031620025634766 30.24397087097168 64785 25.729385375976562
0.09332656860351562 -0.17438079416751862 9.793050765991211 -0.010047273710370064 -0.005342630669474602 0.00893497560173273 24.548063278198242 -14.884521484375 31.470972061157227 64786 25.921077728271484
0.09933602809906006 -0.20775750279426575 9.78353500366211 -0.010438145138323307 -0.007133521139621735 0.007297911681234837 25.436662673950195 -16.62002182006836 32.0916748046875 64787 25.921077728271484
0.12583214044570923 -0.1839165836572647 9.790671348571777 -0.007469356991350651 -0.007335956208407879 0.004931464325636625 24.550912857055664 -14.44502067565918 31.793922424316406 64788 25.729385375976562
0.11749625205993652 -0.19344669580459595 9.793050765991211 -0.01101706549525261 -0.00907121878117323 0.009080610238015652 26.60711097717285 -13.572021484375 32.14582443237305 64789 25.921077728271484
0.12963908910751343 -0.1815134584903717 9.807324409484863 -0.008542568422853947 -0.007931060157716274 0.008282056078314781 27.182811737060547 -14.021870613098145 31.03672218322754 64790 25.873153686523438
0.12490350008010864 -0.191026508808136 9.82397747039795 -0.007752359379082918 -0.006644130684435368 0.00817208830267191 25.420612335205078 -13.87682056427002 30.860321044921875 64791 25.9689998626709
0.09921139478683472 -0.19822455942630768 9.78353500366211 -0.009927945211529732 -0.006940587889403105 0.007823576219379902 25.420612335205078 -13.87682056427002 30.860321044921875 64792 25.921077728271484
0.10128778219223022 -0.19343248009681702 9.80494499206543 -0.008503247052431107 -0.004505095537751913 0.010779643431305885 25.421361923217773 -14.60282039642334 30.85057258605957 64793 25.537694931030273
0.11230939626693726 -0.18392226099967957 9.785913467407227 -0.009667458012700081 -0.008697155863046646 0.009651534259319305 25.421361923217773 -14.60282039642334 30.85057258605957 64794 25.537694931030273
0.1052747368812561 -0.18390236794948578 9.802566528320312 -0.009029354900121689 -0.006233555264770985 0.008160421624779701 24.8294620513916 -16.06201934814453 30.190271377563477 64795 25.873153686523438
0.12482631206512451 -0.2005878984928131 9.800187110900879 -0.013536693528294563 -0.007377684582024813 0.00790309440344572 26.158763885498047 -13.581320762634277 31.34812355041504 64796 25.921077728271484
0.1196441650390625 -0.18870578706264496 9.771639823913574 -0.009103996679186821 -0.007882135920226574 0.008511584252119064 25.721214294433594 -14.45012092590332 31.490022659301758 64797 25.77730941772461
0.09175652265548706 -0.18155039846897125 9.776397705078125 -0.008056743070483208 -0.00697880145162344 0.010098259896039963 26.171062469482422 -14.293670654296875 32.448219299316406 64798 26.06484603881836
0.1129717230796814 -0.1982160359621048 9.790671348571777 -0.01011644210666418 -0.007500241976231337 0.008507032878696918 24.836061477661133 -14.455071449279785 31.004472732543945 64799 25.873153686523438
0.11644750833511353 -0.18866600096225739 9.80494499206543 -0.01011644210666418 -0.007500241976231337 0.008507032878696918 26.0174617767334 -14.010920524597168 31.81627082824707 64800 25.873153686523438
0.09098845720291138 -0.19821886718273163 9.78829288482666 -0.008823988027870655 -0.006788140628486872 0.007875951938331127 26.0174617767334 -14.010920524597168 31.81627082824707 64801 25.873153686523438
0.11963498592376709 -0.1934211254119873 9.814460754394531 -0.008564910851418972 -0.006307792384177446 0.00866217352449894 24.692813873291016 -14.596220970153809 31.31797218322754 64802 26.06484603881836
0.10241830348968506 -0.18629413843154907 9.795429229736328 -0.009515180252492428 -0.007185814436525106 0.006344216875731945 24.692813873291016 -14.596220970153809 31.31797218322754 64803 25.77730941772461
0.126112699508667 -0.20536574721336365 9.790671348571777 -0.011399361304938793 -0.006993485148996115 0.00653816619887948 25.12390899658203 -13.880420684814453 30.5399227142334 64804 25.9689998626709
0.10534161329269409 -0.18631118535995483 9.781155586242676 -0.007344619370996952 -0.005967480130493641 0.01020814012736082 26.015361785888672 -15.176420211791992 31.483572006225586 64805 25.729385375976562
0.10397356748580933 -0.1934523731470108 9.78829288482666 -0.008783705532550812 -0.006011940073221922 0.00867896992713213 25.286361694335938 -16.333372116088867 31.77682113647461 64806 25.585617065429688
0.09735161066055298 -0.18866032361984253 9.80970287322998 -0.007635063026100397 -0.009106031619012356 0.007971109822392464 25.286361694335938 -16.333372116088867 31.77682113647461 64807 25.585617065429688
0.14187222719192505 -0.21012653410434723 9.795429229736328 -0.0075479536317288876 -0.004548950586467981 0.009582188911736012 26.01506233215332 -14.886021614074707 31.487472534179688 64808 25.873153686523438
0.12428867816925049 -0.19582711160182953 9.795429229736328 -0.007889626547694206 -0.007445643190294504 0.008100351318717003 26.01506233215332 -14.886021614074707 31.487472534179688 64809 25.77730941772461
0.11980003118515015 -0.20062199234962463 9.771639823913574 -0.008578787557780743 -0.006979374680668116 0.00565819488838315 24.398658752441406 -13.86992073059082 31.32442283630371 64810 25.873153686523438
0.10611695051193237 -0.1910691261291504 9.78829288482666 -0.008197901770472527 -0.006820189766585827 0.007158902008086443 24.398658752441406 -13.86992073059082 31.32442283630371 64811 25.873153686523438
0.09900486469268799 -0.20061063766479492 9.781155586242676 -0.011801691725850105 -0.004703703336417675 0.010890189558267593 26.15201187133789 -15.043070793151855 30.535873413085938 64812 26.06484603881836
0.11109006404876709 -0.18155324459075928 9.774019241333008 -0.00683831050992012 -0.004814420826733112 0.00786618422716856 26.15201187133789 -15.043070793151855 30.535873413085938 64813 25.77730941772461
0.10248064994812012 -0.1910606026649475 9.795429229736328 -0.011058757081627846 -0.007610500790178776 0.007235855329781771 25.41851234436035 -15.04232120513916 30.527624130249023 64814 25.921077728271484
0.12021297216415405 -0.19584985077381134 9.776397705078125 -0.007987061515450478 -0.00788380391895771 0.006095326505601406 25.72196388244629 -15.17612075805664 31.48027229309082 64815 25.77730941772461
0.12598800659179688 -0.19583280384540558 9.790671348571777 -0.008154626935720444 -0.007829810492694378 0.005356928799301386 25.289812088012695 -14.87552261352539 32.271968841552734 64816 25.77730941772461
0.14009898900985718 -0.1862856149673462 9.802566528320312 -0.010197969153523445 -0.006402877159416676 0.008595566265285015 25.721214294433594 -14.45012092590332 31.490022659301758 64817 25.77730941772461
0.12714511156082153 -0.19343532621860504 9.802566528320312 -0.007127683609724045 -0.004439263138920069 0.006413301452994347 25.137859344482422 -16.189973831176758 31.61857032775879 64818 25.729385375976562
0.08260959386825562 -0.1862969845533371 9.793050765991211 -0.010098502971231937 -0.005100772250443697 0.009690170176327229 25.426311492919922 -14.596970558166504 31.326223373413086 64819 25.921077728271484
0.11002194881439209 -0.19345806539058685 9.78353500366211 -0.008342674933373928 -0.007976616732776165 0.008776692673563957 25.426311492919922 -14.596970558166504 31.326223373413086 64820 25.68146324157715
0.12219595909118652 -0.18390804529190063 9.797808647155762 -0.011558523401618004 -0.0057588801719248295 0.009582853876054287 25.733213424682617 -14.872072219848633 32.59402084350586 64821 25.873153686523438
0.12480223178863525 -0.21963106095790863 9.819219589233398 -0.008502734825015068 -0.007567709777504206 0.006348767783492804 25.733213424682617 -14.872072219848633 32.59402084350586 64822 25.921077728271484
0.12922614812850952 -0.1862856149673462 9.802566528320312 -0.011233827099204063 -0.007911422289907932 0.008186985738575459 25.70966339111328 -16.06291961669922 30.200170516967773 64823 25.873153686523438
0.12472110986709595 -0.1743694245815277 9.802566528320312 -0.007745475973933935 -0.00939007755368948 0.00843471847474575 24.850461959838867 -15.601072311401367 32.25727081298828 64824 25.68146324157715
0.12057065963745117 -0.20773760974407196 9.800187110900879 -0.008591766469180584 -0.006825258955359459 0.008126828819513321 26.01011085510254 -14.89187240600586 31.011821746826172 64825 25.921077728271484
0.12887555360794067 -0.1958242654800415 9.797808647155762 -0.009321381337940693 -0.009823201224207878 0.009570116177201271 26.17226219177246 -15.455269813537598 32.432621002197266 64826 25.921077728271484
0.10941731929779053 -0.18628846108913422 9.800187110900879 -0.008600681088864803 -0.0049432567320764065 0.008774618618190289 25.28936195373535 -14.439921379089355 32.2778205871582 64827 25.921077728271484
0.09783929586410522 -0.1505427062511444 9.797808647155762 -0.012066690251231194 -0.005087870638817549 0.008146768435835838 26.017160415649414 -13.720520973205566 31.820171356201172 64828 25.873153686523438
0.08454644680023193 -0.18629983067512512 9.790671348571777 -0.009860807098448277 -0.005646920762956142 0.009161939844489098 26.017160415649414 -13.720520973205566 31.820171356201172 64829 25.729385375976562
0.09655439853668213 -0.1768038272857666 9.759745597839355 -0.00753700640052557 -0.005567009560763836 0.008023976348340511 25.423011779785156 -16.200023651123047 30.82912254333496 64830 25.873153686523438
0.09937030076980591 -0.17674414813518524 9.80970287322998 -0.010428780689835548 -0.00860267598181963 0.009386426769196987 25.423011779785156 -16.200023651123047 30.82912254333496 64831 25.921077728271484
0.10183471441268921 -0.19347795844078064 9.766881942749023 -0.008464483544230461 -0.007655452471226454 0.008062208071351051 25.124658584594727 -14.606420516967773 30.53017234802246 64832 25.873153686523438
0.1278742551803589 -0.21013790369033813 9.785913467407227 -0.010737054981291294 -0.00797722116112709 0.00844497699290514 25.13620948791504 -14.59277057647705 31.6400203704834 64833 25.9689998626709
0.0948382019996643 -0.217267706990242 9.802566528320312 -0.01110998634248972 -0.007368642836809158 0.007991049438714981 26.011310577392578 -16.053470611572266 30.9962215423584 64834 25.585617065429688
0.1294131875038147 -0.20058505237102509 9.802566528320312 -0.010034915991127491 -0.008597606793045998 0.008418500423431396 26.610260009765625 -16.6212215423584 32.10487365722656 64835 25.441848754882812
0.11614757776260376 -0.18390236794948578 9.802566528320312 -0.008650949224829674 -0.007351163309067488 0.007835243828594685 25.420612335205078 -13.87682056427002 30.860321044921875 64836 25.68146324157715
0.11832928657531738 -0.2053287923336029 9.821599006652832 -0.009443189948797226 -0.009502037428319454 0.008855631574988365 25.42721176147461 -15.468170166015625 31.31452178955078 64837 25.873153686523438
0.10140079259872437 -0.18389669060707092 9.807324409484863 -0.009436646476387978 -0.006497357506304979 0.008860674686729908 25.42721176147461 -15.468170166015625 31.31452178955078 64838 25.921077728271484
0.12375813722610474 -0.21249271929264069 9.80970287322998 -0.012451639398932457 -0.006974942050874233 0.008466903120279312 26.159061431884766 -13.871720314025879 31.344223022460938 64839 25.921077728271484
0.12039542198181152 -0.21250692009925842 9.797808647155762 -0.008583812043070793 -0.006057496182620525 0.00917360745370388 26.159061431884766 -13.871720314025879 31.344223022460938 64840 25.873153686523438
0.11619043350219727 -0.20535437762737274 9.800187110900879 -0.009684327989816666 -0.007582916412502527 0.009252546355128288 25.866859436035156 -15.033020973205566 31.3253231048584 64841 25.77730941772461
0.09890681505203247 -0.19581858813762665 9.802566528320312 -0.01013128086924553 -0.0055220588110387325 0.007197624072432518 25.29311180114746 -14.871622085571289 32.58906936645508 64842 25.9689998626709
0.11725854873657227 -0.19344954192638397 9.790671348571777 -0.011530703864991665 -0.00789117906242609 0.008423629216849804 24.828262329101562 -14.900422096252441 30.20587158203125 64843 25.873153686523438
0.1225970983505249 -0.1600671261548996 9.80494499206543 -0.011178535409271717 -0.006425393745303154 0.005610948894172907 25.286062240600586 -16.042970657348633 31.78072166442871 64844 25.9689998626709
0.11791372299194336 -0.18631687760353088 9.776397705078125 -0.010788284242153168 -0.007735362742096186 0.009200171567499638 24.53036117553711 -13.74242115020752 29.901071548461914 64845 25.921077728271484
0.0989762544631958 -0.22201144695281982 9.821599006652832 -0.010646953247487545 -0.005205962806940079 0.0074510653503239155 24.551362991333008 -14.880621910095215 31.788070678710938 64846 25.441848754882812
0.11379456520080566 -0.22206829488277435 9.774019241333008 -0.008738399483263493 -0.006157618016004562 0.005966576281934977 24.551362991333008 -14.880621910095215 31.788070678710938 64847 25.68146324157715
0.12315821647644043 -0.20296545326709747 9.80494499206543 -0.009952319785952568 -0.0061812624335289 0.009114115498960018 24.108261108398438 -15.174469947814941 31.462121963500977 64848 25.77730941772461
0.1106531023979187 -0.20536857843399048 9.78829288482666 -0.010933507233858109 -0.009304639883339405 0.008081655949354172 24.108261108398438 -15.174469947814941 31.462121963500977 64849 25.9689998626709
0.10901612043380737 -0.21012938022613525 9.793050765991211 -0.009710732847452164 -0.007687534671276808 0.011453507468104362 26.000961303710938 -14.030420303344727 30.230770111083984 64850 25.729385375976562
0.12690740823745728 -0.19343817234039307 9.800187110900879 -0.010091619566082954 -0.007846718654036522 0.009952799417078495 24.55541229248047 -14.003570556640625 32.275421142578125 64851 25.921077728271484
0.1088796854019165 -0.18152765929698944 9.795429229736328 -0.011149199679493904 -0.004631134681403637 0.007972179912030697 26.612659454345703 -15.74612045288086 32.43367004394531 64852 26.208614349365234
0.09571468830108643 -0.1934211254119873 9.814460754394531 -0.008816033601760864 -0.006020377390086651 0.008922730572521687 25.133358001708984 -15.032270431518555 31.31707191467285 64853 25.873153686523438
0.09117543697357178 -0.21251828968524933 9.78829288482666 -0.012168185785412788 -0.0072539192624390125 0.007962586358189583 25.86566162109375 -13.871420860290527 31.340923309326172 64854 25.729385375976562
0.08619052171707153 -0.20296545326709747 9.80494499206543 -0.00983908586204052 -0.010371049866080284 0.010733979754149914 25.141159057617188 -14.586920738220215 32.11567306518555 64855 25.873153686523438
0.12602686882019043 -0.16246174275875092 9.795429229736328 -0.01028197631239891 -0.006582304369658232 0.006858214735984802 25.141159057617188 -14.586920738220215 32.11567306518555 64856 25.729385375976562
0.1280449628829956 -0.20772624015808105 9.80970287322998 -0.009069637395441532 -0.0070097558200359344 0.007357402704656124 26.01386070251465 -13.724420547485352 31.50307273864746 64857 25.77730941772461
0.11066079139709473 -0.1696143001317978 9.793050765991211 -0.011317833326756954 -0.008090849965810776 0.006449633277952671 26.01386070251465 -13.724420547485352 31.50307273864746 64858 26.112768173217773
0.0949394702911377 -0.18866316974163055 9.807324409484863 -0.007818087004125118 -0.010174715891480446 0.007875461131334305 24.40390968322754 -15.753620147705078 31.61617088317871 64859 25.873153686523438
0.07975322008132935 -0.1886887401342392 9.785913467407227 -0.009819564409554005 -0.007520485669374466 0.008270389400422573 24.40390968322754 -15.753620147705078 31.61617088317871 64860 25.873153686523438
0.09829503297805786 -0.1672225296497345 9.800187110900879 -0.008157619275152683 -0.006043989211320877 0.007961920462548733 26.154861450195312 -14.603569984436035 30.858821868896484 64861 25.585617065429688
0.1070675253868103 -0.19105777144432068 9.797808647155762 -0.011736073531210423 -0.007336593698710203 0.008708098903298378 26.154861450195312 -14.603569984436035 30.858821868896484 64862 25.68146324157715
0.09362649917602539 -0.17914442718029022 9.795429229736328 -0.008149664849042892 -0.005276226904243231 0.009008699096739292 24.393709182739258 -13.875770568847656 30.848772048950195 64863 25.729385375976562
0.09794443845748901 -0.176761195063591 9.795429229736328 -0.008451055735349655 -0.0073967184871435165 0.00832988042384386 26.152761459350586 -15.769070625305176 30.526123046875 64864 25.921077728271484
0.12189590930938721 -0.17914442718029022 9.795429229736328 -0.010129869915544987 -0.007758975028991699 0.008239361457526684 25.859060287475586 -15.478370666503906 30.526723861694336 64865 25.9689998626709
0.12041950225830078 -0.1934637427330017 9.778777122497559 -0.008626125752925873 -0.007697639986872673 0.009281010366976261 25.120908737182617 -15.773871421813965 30.038923263549805 64866 25.77730941772461
0.1252899169921875 -0.1815134584903717 9.807324409484863 -0.012792241759598255 -0.006357925944030285 0.007769214920699596 25.281112670898438 -14.449670791625977 31.48507308959961 64867 25.9689998626709
0.11810076236724854 -0.20061631500720978 9.776397705078125 -0.007442053873091936 -0.006405640859156847 0.008203116245567799 25.281112670898438 -14.449670791625977 31.48507308959961 64868 25.873153686523438
0.11243408918380737 -0.19345521926879883 9.785913467407227 -0.010894634760916233 -0.006291521713137627 0.007842937484383583 25.12915802001953 -15.764121055603027 30.83167266845703 64869 25.873153686523438
0.08649510145187378 -0.2053714245557785 9.785913467407227 -0.007771259639412165 -0.006393834948539734 0.008683521300554276 25.12915802001953 -15.764121055603027 30.83167266845703 64870 25.9689998626709
0.10157757997512817 -0.2101663202047348 9.762124061584473 -0.011313943192362785 -0.009050975553691387 0.009317254647612572 26.147811889648438 -15.774920463562012 30.050472259521484 64871 25.729385375976562
0.1307695508003235 -0.17437511682510376 9.797808647155762 -0.009666836820542812 -0.005596295464783907 0.007699376903474331 25.850360870361328 -15.052520751953125 29.739822387695312 64872 25.729385375976562
0.11647868156433105 -0.1910492330789566 9.80494499206543 -0.009870792739093304 -0.007278626784682274 0.009025582112371922 24.84176254272461 -15.175220489501953 31.470373153686523 64873 25.921077728271484
0.09348243474960327 -0.1862969845533371 9.793050765991211 -0.01131146214902401 -0.007774181663990021 0.011143139563500881 25.272411346435547 -14.023820877075195 30.698171615600586 64874 25.729385375976562
0.1012566089630127 -0.1910492330789566 9.80494499206543 -0.010043831542134285 -0.006715604104101658 0.009066291153430939 25.714162826538086 -15.621472358703613 30.681671142578125 64875 26.06484603881836
0.0988607406616211 -0.2077631801366806 9.778777122497559 -0.01047639548778534 -0.007045777980238199 0.005584471859037876 24.681262969970703 -16.209022521972656 30.028121948242188 64876 26.06484603881836
0.11235237121582031 -0.20537427067756653 9.78353500366211 -0.011409345082938671 -0.008625192567706108 0.006401808466762304 24.681262969970703 -16.209022521972656 30.028121948242188 64877 25.873153686523438
0.13744914531707764 -0.18629130721092224 9.797808647155762 -0.007549024652689695 -0.00806265976279974 0.008798039518296719 25.13620948791504 -14.59277057647705 31.6400203704834 64878 25.921077728271484
0.12338876724243164 -0.18153618276119232 9.78829288482666 -0.009855334646999836 -0.006155950017273426 0.008382834494113922 25.13620948791504 -14.59277057647705 31.6400203704834 64879 25.921077728271484
0.1052747368812561 -0.18390236794948578 9.802566528320312 -0.011081099510192871 -0.005987232550978661 0.007615973707288504 25.13620948791504 -14.59277057647705 31.6400203704834 64880 25.921077728271484
0.10077422857284546 -0.16962850093841553 9.781155586242676 -0.010171564295887947 -0.006298258900642395 0.0063946060836315155 24.540111541748047 -15.184670448303223 30.6743221282959 64881 25.921077728271484
0.10984659194946289 -0.1982274055480957 9.781155586242676 -0.010875733569264412 -0.00654181744903326 0.007331504486501217 25.86941146850586 -14.303121566772461 31.652172088623047 64882 25.921077728271484
0.11847084760665894 -0.17439216375350952 9.78353500366211 -0.007760313339531422 -0.007411893457174301 0.007125309202820063 25.8758602142334 -15.749271392822266 32.10832214355469 64883 25.921077728271484
0.13385576009750366 -0.20773476362228394 9.802566528320312 -0.008509790524840355 -0.007509774528443813 0.010774601250886917 26.1466121673584 -14.613320350646973 30.066072463989258 64884 25.729385375976562
0.15273350477218628 -0.19105777144432068 9.797808647155762 -0.007661296986043453 -0.006522637326270342 0.005483605898916721 26.894962310791016 -16.1956729888916 31.321271896362305 64885 25.873153686523438
0.0986185073852539 -0.2101236879825592 9.797808647155762 -0.011366581544280052 -0.006572199519723654 0.009030711837112904 26.894962310791016 -16.1956729888916 31.321271896362305 64886 25.873153686523438
0.11716049909591675 -0.1886574774980545 9.812082290649414 -0.008751376532018185 -0.006003502756357193 0.008435210213065147 26.005910873413086 -14.02457046508789 30.7064208984375 64887 25.9689998626709
0.09998208284378052 -0.2053401619195938 9.812082290649414 -0.006132729351520538 -0.006807779427617788 0.00797102227807045 26.005910873413086 -14.02457046508789 30.7064208984375 64888 25.873153686523438
0.1016501784324646 -0.20296262204647064 9.807324409484863 -0.009874234907329082 -0.005905653350055218 0.008894267491996288 25.716712951660156 -14.891572952270508 31.008522033691406 64889 25.585617065429688
0.11808443069458008 -0.1839052140712738 9.800187110900879 -0.00952815916389227 -0.007031699642539024 0.008812850341200829 26.450212478637695 -14.892322540283203 31.01677131652832 64890 25.585617065429688
0.1056058406829834 -0.1910492330789566 9.80494499206543 -0.010447059758007526 -0.005251518916338682 0.007945702411234379 26.45726203918457 -13.72097110748291 31.82512092590332 64891 25.921077728271484
0.14128714799880981 -0.18627141416072845 9.814460754394531 -0.010307311080396175 -0.0031732141505926847 0.009843324311077595 24.099260330200195 -14.458220481872559 30.679121017456055 64892 25.729385375976562
0.123782217502594 -0.19344954192638397 9.790671348571777 -0.007382870651781559 -0.005879736505448818 0.008494701236486435 25.27691078186035 -15.18152141571045 30.999671936035156 64893 25.77730941772461
0.11343532800674438 -0.1791415810585022 9.797808647155762 -0.009851892478764057 -0.007528922986239195 0.008514149114489555 24.836061477661133 -14.455071449279785 31.004472732543945 64894 25.921077728271484
0.1145775318145752 -0.19107197225093842 9.785913467407227 -0.008727002888917923 -0.006762828212231398 0.0071446700021624565 24.836061477661133 -14.455071449279785 31.004472732543945 64895 25.873153686523438
0.10810446739196777 -0.17676971852779388 9.78829288482666 -0.008999058045446873 -0.007089061662554741 0.008827081881463528 25.861459732055664 -14.603270530700684 30.85552215576172 64896 26.06484603881836
0.13158774375915527 -0.20058505237102509 9.802566528320312 -0.01097175758332014 -0.009216897189617157 0.006368215661495924 25.861459732055664 -14.603270530700684 30.85552215576172 64897 25.921077728271484
0.11541050672531128 -0.20295409858226776 9.814460754394531 -0.009455996565520763 -0.006659910082817078 0.006635801400989294 24.850011825561523 -15.165471076965332 32.263118743896484 64898 25.9689998626709
0.11263597011566162 -0.19342680275440216 9.80970287322998 -0.012019971385598183 -0.007470464799553156 0.0064761098474264145 25.720012664794922 -13.288519859313965 31.50562286376953 64899 25.921077728271484
0.10009962320327759 -0.19344669580459595 9.793050765991211 -0.010763910599052906 -0.00849469006061554 0.007909632287919521 25.724964141845703 -14.88182258605957 31.801271438598633 64900 25.729385375976562
0.12751507759094238 -0.1672111600637436 9.80970287322998 -0.011680953204631805 -0.00853857770562172 0.010820526629686356 25.435012817382812 -15.022821426391602 32.11312484741211 64901 25.393924713134766
0.1284002661705017 -0.19582995772361755 9.793050765991211 -0.012658074498176575 -0.009934065863490105 0.007967224344611168 25.435012817382812 -15.022821426391602 32.11312484741211 64902 25.729385375976562
0.13092541694641113 -0.18629130721092224 9.797808647155762 -0.009520203806459904 -0.006263936869800091 0.009859628044068813 25.717012405395508 -15.181971549987793 31.004621505737305 64903 25.873153686523438
0.11184591054916382 -0.20299671590328217 9.778777122497559 -0.011290529742836952 -0.007160534150898457 0.009721284732222557 25.717012405395508 -15.181971549987793 31.004621505737305 64904 25.921077728271484
0.11550867557525635 -0.20774613320827484 9.793050765991211 -0.01019548811018467 -0.005126084666699171 0.010421451181173325 25.137409210205078 -15.754371643066406 31.624422073364258 64905 25.873153686523438
0.10565328598022461 -0.21014359593391418 9.781155586242676 -0.010109450668096542 -0.004082714207470417 0.011248381808400154 25.137409210205078 -15.754371643066406 31.624422073364258 64906 25.873153686523438
0.11106604337692261 -0.200596421957016 9.793050765991211 -0.008912057615816593 -0.008695456199347973 0.007959443144500256 25.137409210205078 -15.754371643066406 31.624422073364258 64907 25.9689998626709
0.1252751350402832 -0.19584132730960846 9.78353500366211 -0.008735918439924717 -0.004880825523287058 0.007792461197823286 24.828262329101562 -14.900422096252441 30.20587158203125 64908 25.873153686523438
0.11552810668945312 -0.1910606026649475 9.795429229736328 -0.007978037931025028 -0.003602332901209593 0.007926254533231258 24.828262329101562 -14.900422096252441 30.20587158203125 64909 25.729385375976562
0.11125302314758301 -0.2148958444595337 9.793050765991211 -0.011832437478005886 -0.004261045251041651 0.007487223017960787 24.837711334228516 -16.052268981933594 30.983022689819336 64910 25.873153686523438
0.11048483848571777 -0.23156431317329407 9.80494499206543 -0.011413750238716602 -0.004602453671395779 0.00796506367623806 24.837711334228516 -16.052268981933594 30.983022689819336 64911 25.873153686523438
0.11672341823577881 -0.2124728262424469 9.826356887817383 -0.008761362172663212 -0.007635209709405899 0.008298852480947971 25.716262817382812 -14.455971717834473 31.014371871948242 64912 25.873153686523438
0.09232079982757568 -0.19105207920074463 9.802566528320312 -0.009745990857481956 -0.009385613724589348 0.00713507691398263 26.90816307067871 -14.580921173095703 32.76967239379883 64913 25.729385375976562
0.13818150758743286 -0.16959725320339203 9.807324409484863 -0.012506932951509953 -0.008460971526801586 0.011042939499020576 26.90816307067871 -14.580921173095703 32.76967239379883 64914 25.729385375976562
0.12678271532058716 -0.1839052140712738 9.800187110900879 -0.011448109522461891 -0.00547483516857028 0.009119245223701 24.693714141845703 -15.46742057800293 31.306272506713867 64915 25.921077728271484
0.10016655921936035 -0.1958555281162262 9.771639823913574 -0.010325251147150993 -0.005572683643549681 0.008660187013447285 24.693714141845703 -15.46742057800293 31.306272506713867 64916 25.921077728271484
0.10221189260482788 -0.18868021667003632 9.793050765991211 -0.010793758556246758 -0.007226333487778902 0.009979276917874813 25.124658584594727 -14.606420516967773 30.53017234802246 64917 25.9689998626709
0.12035715579986572 -0.18869726359844208 9.778777122497559 -0.010901178233325481 -0.009296203032135963 0.007837895303964615 25.874361038208008 -14.297271728515625 32.12782287597656 64918 25.921077728271484
0.10489296913146973 -0.19105777144432068 9.797808647155762 -0.008601302281022072 -0.008044116199016571 0.010726776905357838 26.604860305786133 -16.19147300720215 31.63507080078125 64919 25.873153686523438
0.11216533184051514 -0.19107481837272644 9.78353500366211 -0.009413233026862144 -0.004606917500495911 0.009264704771339893 25.142059326171875 -15.458120346069336 32.103973388671875 64920 25.873153686523438
0.12919175624847412 -0.2172989696264267 9.776397705078125 -0.007786097936332226 -0.00441565178334713 0.007374112028628588 26.446462631225586 -14.460620880126953 30.705522537231445 64921 25.921077728271484
0.12756258249282837 -0.18630550801753998 9.785913467407227 -0.010345562361180782 -0.0030854707583785057 0.008129884488880634 25.418062210083008 -14.606720924377441 30.53347396850586 64922 25.729385375976562
0.09059029817581177 -0.18866316974163055 9.807324409484863 -0.009466943331062794 -0.00564185157418251 0.008194014430046082 25.418062210083008 -14.606720924377441 30.53347396850586 64923 25.873153686523438
0.09430056810379028 -0.21250692009925842 9.797808647155762 -0.010906652547419071 -0.008787172846496105 0.00861700065433979 25.7080135345459 -14.465721130371094 30.221620559692383 64924 25.9689998626709
0.11122184991836548 -0.21251261234283447 9.793050765991211 -0.009202392771840096 -0.005670532584190369 0.008201129734516144 25.7080135345459 -14.465721130371094 30.221620559692383 64925 25.77730941772461
0.13511866331100464 -0.17437511682510376 9.797808647155762 -0.009520033374428749 -0.00357592455111444 0.005171164870262146 25.26506233215332 -14.904772758483887 29.893722534179688 64926 25.77730941772461
0.08759438991546631 -0.19584985077381134 9.776397705078125 -0.010995060205459595 -0.004943861626088619 0.00844290480017662 25.866859436035156 -15.033020973205566 31.3253231048584 64927 25.537694931030273
0.11090552806854248 -0.1910378783941269 9.814460754394531 -0.012087620794773102 -0.005701518151909113 0.009568622335791588 26.146312713623047 -14.322920799255371 30.06997299194336 64928 25.68146324157715
0.09546220302581787 -0.2077518105506897 9.78829288482666 -0.008943316526710987 -0.005190183874219656 0.008987351320683956 26.147062301635742 -15.048920631408691 30.060222625732422 64929 25.873153686523438
0.12058305740356445 -0.1696256697177887 9.78353500366211 -0.010026962496340275 -0.00782984308898449 0.009465279057621956 24.68456268310547 -14.605971336364746 30.525222778320312 64930 25.873153686523438
0.11762547492980957 -0.20062199234962463 9.771639823913574 -0.009774256497621536 -0.007666162680834532 0.005557994823902845 24.386659622192383 -15.047121047973633 30.040422439575195 64931 25.873153686523438
0.12559455633163452 -0.18391941487789154 9.78829288482666 -0.010072097182273865 -0.004996153991669416 0.007489209529012442 24.386659622192383 -15.047121047973633 30.040422439575195 64932 25.729385375976562
0.11114776134490967 -0.1886773705482483 9.795429229736328 -0.00946350209414959 -0.0070148250088095665 0.008325329050421715 25.71866226196289 -16.7791690826416 30.983171463012695 64933 25.729385375976562
0.1213725209236145 -0.2172364443540573 9.8287353515625 -0.01008552499115467 -0.005254887510091066 0.007221536710858345 25.71866226196289 -16.7791690826416 30.983171463012695 64934 25.873153686523438
0.11253076791763306 -0.16720831394195557 9.812082290649414 -0.0075883460231125355 -0.011488623917102814 0.006300451699644327 24.552112579345703 -15.606621742248535 31.778322219848633 64935 25.921077728271484
0.10564166307449341 -0.19107481837272644 9.78353500366211 -0.008679836057126522 -0.008732574060559273 0.008210319094359875 24.8485107421875 -13.713471412658691 32.28261947631836 64936 25.77730941772461
0.1296079158782959 -0.17913022637367249 9.807324409484863 -0.009922021999955177 -0.007036768831312656 0.009780775755643845 26.592859268188477 -15.76952075958252 30.53107261657715 64937 25.873153686523438
0.13354086875915527 -0.2172989696264267 9.776397705078125 -0.00986425019800663 -0.004273946862667799 0.009030625224113464 24.841012954711914 -14.449220657348633 31.48012351989746 64938 25.921077728271484
0.1160852313041687 -0.17913590371608734 9.802566528320312 -0.0075882356613874435 -0.005325151141732931 0.008779169991612434 25.717912673950195 -16.05316925048828 30.992921829223633 64939 25.9689998626709
0.10047364234924316 -0.22204555571079254 9.793050765991211 -0.00989561714231968 -0.0069321501068770885 0.007579816039651632 25.281112670898438 -14.449670791625977 31.48507308959961 64940 25.873153686523438
0.10799145698547363 -0.18630550801753998 9.785913467407227 -0.008655461482703686 -0.009491899982094765 0.006919779349118471 25.281112670898438 -14.449670791625977 31.48507308959961 64941 26.112768173217773
0.10508769750595093 -0.16960293054580688 9.802566528320312 -0.009226427413523197 -0.010661832056939602 0.009749256074428558 25.72991371154785 -14.875972747802734 32.276920318603516 64942 26.06484603881836
0.13234412670135498 -0.16484782099723816 9.793050765991211 -0.011332844384014606 -0.008800678886473179 0.009828687645494938 25.72991371154785 -14.875972747802734 32.276920318603516 64943 25.873153686523438
0.12336474657058716 -0.20057937502861023 9.807324409484863 -0.00999914575368166 -0.009962142445147038 0.008306054398417473 25.859359741210938 -15.768771171569824 30.522823333740234 64944 25.873153686523438
0.09439408779144287 -0.21965664625167847 9.797808647155762 -0.008236153051257133 -0.0067324466072022915 0.0054454621858894825 25.71491241455078 -16.347471237182617 30.671920776367188 64945 26.112768173217773
0.12031358480453491 -0.22442594170570374 9.795429229736328 -0.009120866656303406 -0.006767896935343742 0.008112597279250622 24.833511352539062 -15.18497085571289 30.677621841430664 64946 25.921077728271484
0.115384042263031 -0.19821318984031677 9.793050765991211 -0.009937930852174759 -0.008572294376790524 0.007687218952924013 26.01506233215332 -14.886021614074707 31.487472534179688 64947 25.873153686523438
0.10244947671890259 -0.1886773705482483 9.795429229736328 -0.01101954560726881 -0.010348009876906872 0.007254725322127342 25.724964141845703 -14.88182258605957 31.801271438598633 64948 25.873153686523438
0.1278820037841797 -0.17438364028930664 9.790671348571777 -0.008071241900324821 -0.010751243680715561 0.009046439081430435 23.961862564086914 -13.865571022033691 31.636571884155273 64949 25.921077728271484
0.13290119171142578 -0.152923122048378 9.800187110900879 -0.00908447615802288 -0.005031572189182043 0.006047993432730436 25.119709014892578 -14.61227035522461 30.054521560668945 64950 25.921077728271484
0.13212990760803223 -0.20298819243907928 9.785913467407227 -0.009293904528021812 -0.006204874254763126 0.008153305388987064 24.40390968322754 -15.753620147705078 31.61617088317871 64951 25.729385375976562
0.12971311807632446 -0.2053486853837967 9.80494499206543 -0.00833861157298088 -0.006248729769140482 0.006955849938094616 24.40390968322754 -15.753620147705078 31.61617088317871 64952 25.68146324157715
0.1034359335899353 -0.18869158625602722 9.78353500366211 -0.009071668609976768 -0.007873699069023132 0.008267824538052082 26.60321044921875 -14.594270706176758 31.65652084350586 64953 25.77730941772461
0.12346279621124268 -0.2053714245557785 9.785913467407227 -0.008015500381588936 -0.008852367289364338 0.009206708520650864 26.60321044921875 -14.594270706176758 31.65652084350586 64954 25.77730941772461
0.1333882212638855 -0.1719861626625061 9.802566528320312 -0.009965747594833374 -0.006439995486289263 0.008846443146467209 25.125858306884766 -15.768021583557129 30.51457405090332 64955 25.921077728271484
0.11043941974639893 -0.1863282471895218 9.766881942749023 -0.00998509768396616 -0.006602548062801361 0.006621569860726595 25.125858306884766 -15.768021583557129 30.51457405090332 64956 25.585617065429688
0.09909379482269287 -0.21011801064014435 9.802566528320312 -0.012162712402641773 -0.007762948516756296 0.007183479610830545 26.603660583496094 -15.029870986938477 31.650671005249023 64957 26.06484603881836
0.10589873790740967 -0.17438647150993347 9.78829288482666 -0.01097130961716175 -0.008804047480225563 0.009104521945118904 26.603660583496094 -15.029870986938477 31.650671005249023 64958 25.921077728271484
0.11300289630889893 -0.20059926807880402 9.790671348571777 -0.009681333787739277 -0.009368738159537315 0.006647555623203516 26.60321044921875 -14.594270706176758 31.65652084350586 64959 25.921077728271484
0.13567721843719482 -0.19348931312561035 9.757366180419922 -0.01129160076379776 -0.010674243792891502 0.008937136270105839 24.560361862182617 -15.596871376037598 32.57107162475586 64960 25.921077728271484
0.1311124563217163 -0.20059072971343994 9.797808647155762 -0.0102874506264925 -0.006073275115340948 0.007637321017682552 24.692062377929688 -13.870221138000488 31.327722549438477 64961 25.873153686523438
0.11058610677719116 -0.20295977592468262 9.80970287322998 -0.012164747342467308 -0.008626892231404781 0.008093900978565216 24.692062377929688 -13.870221138000488 31.327722549438477 64962 25.873153686523438
0.08843207359313965 -0.20537427067756653 9.78353500366211 -0.010523734614253044 -0.007764043752104044 0.0092072868719697 24.70736312866211 -14.2882719039917 32.74882125854492 64963 25.873153686523438
0.11812740564346313 -0.20535722374916077 9.797808647155762 -0.008950309827923775 -0.00860771257430315 0.006246003322303295 24.70736312866211 -14.2882719039917 32.74882125854492 64964 25.77730941772461
0.10703635215759277 -0.18867453932762146 9.797808647155762 -0.008203375153243542 -0.006311160512268543 0.00793800875544548 26.611459732055664 -14.58452033996582 32.44927215576172 64965 25.729385375976562
0.13687562942504883 -0.18150493502616882 9.814460754394531 -0.009371989406645298 -0.006480482406914234 0.008373154327273369 26.01386070251465 -13.724420547485352 31.50307273864746 64966 25.729385375976562
0.11487758159637451 -0.1958356350660324 9.78829288482666 -0.012384502217173576 -0.005681274924427271 0.009805266745388508 27.18941307067871 -15.613221168518066 31.490922927856445 64967 25.9689998626709
0.10329174995422363 -0.19584417343139648 9.781155586242676 -0.009250180795788765 -0.006801647134125233 0.009087638929486275 26.450511932373047 -15.182721138000488 31.01287269592285 64968 25.77730941772461
0.10789018869400024 -0.21491006016731262 9.781155586242676 -0.010502802208065987 -0.00715039623901248 0.00778543297201395 26.16311264038086 -14.593820571899414 31.65157127380371 64969 25.873153686523438
0.11404693126678467 -0.20773760974407196 9.800187110900879 -0.01066100224852562 -0.00856555812060833 0.009135549888014793 25.267160415649414 -13.73927116394043 30.226421356201172 64970 26.112768173217773
0.10346710681915283 -0.19107481837272644 9.78353500366211 -0.00749029079452157 -0.007949603721499443 0.006353318691253662 25.267160415649414 -13.73927116394043 30.226421356201172 64971 25.873153686523438
0.12298041582107544 -0.18395067751407623 9.762124061584473 -0.011217745952308178 -0.0036878851242363453 0.005592078901827335 24.857511520385742 -14.429720878601074 33.06562042236328 64972 25.873153686523438
0.11066794395446777 -0.19104070961475372 9.812082290649414 -0.012328246608376503 -0.006845011375844479 0.005534661002457142 24.857511520385742 -14.429720878601074 33.06562042236328 64973 25.9689998626709
0.12039995193481445 -0.21014927327632904 9.776397705078125 -0.009081033058464527 -0.006404545158147812 0.006179308518767357 26.60441017150879 -15.755870819091797 31.640920639038086 64974 25.921077728271484
0.11557555198669434 -0.2101549506187439 9.771639823913574 -0.011056276969611645 -0.006333709228783846 0.009061739780008793 26.01011085510254 -14.89187240600586 31.011821746826172 64975 25.9689998626709
0.10200536251068115 -0.19106629490852356 9.790671348571777 -0.009112400934100151 -0.009062748402357101 0.004728499334305525 25.135459899902344 -13.86677074432373 31.649770736694336 64976 25.921077728271484
0.1154969334602356 -0.1886773705482483 9.795429229736328 -0.007884153164923191 -0.007954672910273075 0.007321245037019253 25.134559631347656 -16.19387435913086 31.301471710205078 64977 25.9689998626709
0.11470222473144531 -0.20060494542121887 9.785913467407227 -0.009307332336902618 -0.006463607773184776 0.007885633036494255 26.011310577392578 -16.053470611572266 30.9962215423584 64978 25.77730941772461
0.1187707781791687 -0.17915579676628113 9.785913467407227 -0.010129869915544987 -0.007758975028991699 0.008239361457526684 23.958560943603516 -13.869470596313477 31.319473266601562 64979 25.729385375976562
0.09603101015090942 -0.2148958444595337 9.793050765991211 -0.010850910097360611 -0.006888294592499733 0.008777271024882793 23.958560943603516 -13.869470596313477 31.319473266601562 64980 25.68146324157715
0.11962330341339111 -0.17435237765312195 9.816841125488281 -0.008862239308655262 -0.006700397003442049 0.006162512116134167 26.455913543701172 -15.612471580505371 31.48267364501953 64981 25.729385375976562
0.1510576605796814 -0.22918960452079773 9.797808647155762 -0.008974683471024036 -0.007848386652767658 0.007536542601883411 26.455913543701172 -15.612471580505371 31.48267364501953 64982 25.921077728271484
0.1158905029296875 -0.20059072971343994 9.797808647155762 -0.011092045344412327 -0.004969174042344093 0.009174185805022717 26.160263061523438 -15.033320426940918 31.328622817993164 64983 25.873153686523438
0.10298711061477661 -0.19343817234039307 9.800187110900879 -0.011444665491580963 -0.006847808137536049 0.009250560775399208 26.154111862182617 -13.877570152282715 30.868572235107422 64984 25.77730941772461
0.13984191417694092 -0.20297399163246155 9.797808647155762 -0.010780779644846916 -0.0073804487474262714 0.007510643918067217 25.8581600189209 -14.607171058654785 30.538423538208008 64985 25.921077728271484
0.1050800085067749 -0.20535722374916077 9.797808647155762 -0.009442119859158993 -0.005988327786326408 0.009639780968427658 24.54311180114746 -14.890372276306152 30.99532127380371 64986 25.921077728271484
0.10612857341766357 -0.21013790369033813 9.785913467407227 -0.009391960687935352 -0.009743895381689072 0.008100438863039017 26.031110763549805 -14.430920600891113 33.07882308959961 64987 25.9689998626709
0.11863839626312256 -0.20537710189819336 9.781155586242676 -0.007775773294270039 -0.008534571155905724 0.007768057752400637 24.398658752441406 -13.86992073059082 31.32442283630371 64988 25.873153686523438
0.11508709192276001 -0.16005292534828186 9.816841125488281 -0.009912487119436264 -0.005817910190671682 0.007180827669799328 24.398658752441406 -13.86992073059082 31.32442283630371 64989 25.729385375976562
0.1267203688621521 -0.17913874983787537 9.800187110900879 -0.008899591863155365 -0.00578695721924305 0.009921684861183167 26.611160278320312 -14.294120788574219 32.45317077636719 64990 25.873153686523438
0.12267124652862549 -0.18390236794948578 9.802566528320312 -0.010869810357689857 -0.006637998390942812 0.00928870402276516 26.611160278320312 -14.294120788574219 32.45317077636719 64991 26.06484603881836
0.10352474451065063 -0.19819897413253784 9.80494499206543 -0.010887302458286285 -0.008624620735645294 0.010841873474419117 25.712512969970703 -14.024271011352539 30.703121185302734 64992 25.537694931030273
0.09144419431686401 -0.21489869058132172 9.790671348571777 -0.008902071975171566 -0.007063749246299267 0.008095800876617432 26.60321044921875 -14.594270706176758 31.65652084350586 64993 25.585617065429688
0.09398889541625977 -0.18867453932762146 9.797808647155762 -0.008469956927001476 -0.00714642321690917 0.008841313421726227 24.836061477661133 -14.455071449279785 31.004472732543945 64994 25.77730941772461
0.10105019807815552 -0.19343532621860504 9.802566528320312 -0.009932007640600204 -0.008668474853038788 0.009644418023526669 26.455163955688477 -14.88647174835205 31.492422103881836 64995 25.9689998626709
0.10884076356887817 -0.21489869058132172 9.790671348571777 -0.011575392447412014 -0.004644641187041998 0.00918386597186327 26.455163955688477 -14.88647174835205 31.492422103881836 64996 25.9689998626709
0.13115525245666504 -0.22204270958900452 9.795429229736328 -0.007914001122117043 -0.006686318200081587 0.00939089059829712 25.420612335205078 -13.87682056427002 30.860321044921875 64997 25.873153686523438
0.11345875263214111 -0.2172790765762329 9.793050765991211 -0.008655012585222721 -0.00907905027270317 0.009656084701418877 25.420612335205078 -13.87682056427002 30.860321044921875 64998 25.77730941772461
0.11613273620605469 -0.19823023676872253 9.778777122497559 -0.011233827099204063 -0.007911422289907932 0.008186985738575459 25.428863525390625 -13.867071151733398 31.6530704498291 64999 25.77730941772461
0.11776047945022583 -0.1981847733259201 9.816841125488281 -0.009964336641132832 -0.008676912635564804 0.009888178668916225 25.428863525390625 -13.867071151733398 31.6530704498291 65000 25.921077728271484
0.11895328760147095 -0.1958129107952118 9.807324409484863 -0.010075199417769909 -0.009373807348310947 0.007615482434630394 24.40241050720215 -14.301621437072754 31.635671615600586 65001 25.873153686523438
0.1032559871673584 -0.19581858813762665 9.802566528320312 -0.012350140139460564 -0.004808893892914057 0.008651085197925568 25.13620948791504 -14.59277057647705 31.6400203704834 65002 25.77730941772461
0.09736794233322144 -0.2053714245557785 9.785913467407227 -0.010266068391501904 -0.005046778824180365 0.008951772004365921 25.13620948791504 -14.59277057647705 31.6400203704834 65003 25.921077728271484
0.08232587575912476 -0.19824445247650146 9.766881942749023 -0.007957725785672665 -0.006089544855058193 0.008456557989120483 25.721664428710938 -14.885722160339355 31.484172821044922 65004 25.873153686523438
0.10477995872497559 -0.20059357583522797 9.795429229736328 -0.009745542891323566 -0.008972764015197754 0.009871382266283035 25.721664428710938 -14.885722160339355 31.484172821044922 65005 25.873153686523438
0.13695436716079712 -0.20298251509666443 9.790671348571777 -0.009455546736717224 -0.006247061770409346 0.009372107684612274 25.27406120300293 -15.62102222442627 30.676721572875977 65006 25.77730941772461
0.11529505252838135 -0.18870578706264496 9.771639823913574 -0.009561448357999325 -0.00439037149772048 0.010751180350780487 25.27406120300293 -15.62102222442627 30.676721572875977 65007 25.729385375976562
0.10579752922058105 -0.2029910385608673 9.78353500366211 -0.009981206618249416 -0.007562672719359398 0.009489191696047783 25.27406120300293 -15.62102222442627 30.676721572875977 65008 25.77730941772461
0.1163034439086914 -0.19581858813762665 9.802566528320312 -0.009038891643285751 -0.007452412974089384 0.010760369710624218 25.707563400268555 -14.030120849609375 30.22747039794922 65009 25.585617065429688
0.11732089519500732 -0.1982160359621048 9.790671348571777 -0.00903685949742794 -0.006588469725102186 0.00984994787722826 25.707563400268555 -14.030120849609375 30.22747039794922 65010 25.77730941772461
0.11670154333114624 -0.20537427067756653 9.78353500366211 -0.007756423205137253 -0.008372018113732338 0.009992930106818676 24.543861389160156 -15.616372108459473 30.985572814941406 65011 25.921077728271484
0.12746453285217285 -0.1815134584903717 9.807324409484863 -0.007489840965718031 -0.007536755409091711 0.009089624509215355 25.430063247680664 -15.028671264648438 31.63747215270996 65012 25.873153686523438
0.10880959033966064 -0.2125154584646225 9.790671348571777 -0.009426148608326912 -0.007928265258669853 0.004566155839711428 24.693714141845703 -15.46742057800293 31.306272506713867 65013 25.873153686523438
0.0931006669998169 -0.1934523731470108 9.78829288482666 -0.009128371253609657 -0.007122811861336231 0.00980212353169918 25.438312530517578 -15.0189208984375 32.43022155761719 65014 25.873153686523438
0.09336942434310913 -0.19583280384540558 9.790671348571777 -0.007949771359562874 -0.005321782547980547 0.009503335691988468 25.71581268310547 -14.020371437072754 31.020221710205078 65015 25.921077728271484
0.10959982872009277 -0.2029455602169037 9.821599006652832 -0.009193478152155876 -0.007552534807473421 0.0075533390045166016 26.888813018798828 -15.039920806884766 30.861221313476562 65016 26.06484603881836
0.11591452360153198 -0.18154755234718323 9.778777122497559 -0.008980156853795052 -0.007339357398450375 0.008315648883581161 26.888813018798828 -15.039920806884766 30.861221313476562 65017 26.208614349365234
0.12030649185180664 -0.2029995620250702 9.776397705078125 -0.01161471288651228 -0.008070606738328934 0.006686277687549591 24.549562454223633 -16.33652114868164 31.451473236083984 65018 25.921077728271484
0.10265129804611206 -0.18864895403385162 9.819219589233398 -0.009791126474738121 -0.006551923230290413 0.005159006919711828 24.549562454223633 -16.33652114868164 31.451473236083984 65019 25.921077728271484
0.1163034439086914 -0.19581858813762665 9.802566528320312 -0.010856383480131626 -0.006379264872521162 0.009556377306580544 25.850360870361328 -15.052520751953125 29.739822387695312 65020 25.921077728271484
0.08853328227996826 -0.17676971852779388 9.78829288482666 -0.012219415977597237 -0.0070120603777468204 0.008717779070138931 24.396108627319336 -16.198972702026367 30.81757164001465 65021 25.77730941772461
0.10680574178695679 -0.2101038098335266 9.814460754394531 -0.008952340111136436 -0.009471656754612923 0.0071564242243766785 26.74106216430664 -15.622522354125977 30.693222045898438 65022 25.537694931030273
0.10127294063568115 -0.20776033401489258 9.781155586242676 -0.009543617255985737 -0.008154376409947872 0.009455598890781403 26.458763122558594 -15.17297077178955 31.805622100830078 65023 25.873153686523438
0.11121010780334473 -0.19344384968280792 9.795429229736328 -0.008696705102920532 -0.007618334610015154 0.007811331190168858 26.147512435913086 -15.484519958496094 30.054372787475586 65024 25.873153686523438
0.11617404222488403 -0.18864327669143677 9.82397747039795 -0.010959291830658913 -0.0063083963468670845 0.008330458775162697 25.732763290405273 -14.436470985412598 32.59987258911133 65025 25.873153686523438
0.0924188494682312 -0.19584417343139648 9.781155586242676 -0.011724053882062435 -0.004840943496674299 0.00793403573334217 25.732763290405273 -14.436470985412598 32.59987258911133 65026 25.77730941772461
0.07949614524841309 -0.20537710189819336 9.781155586242676 -0.009798631072044373 -0.0069068376906216145 0.006848534103482962 26.88506317138672 -14.608221054077148 30.549972534179688 65027 25.873153686523438
0.11592167615890503 -0.20297399163246155 9.797808647155762 -0.008129803463816643 -0.00817628763616085 0.00680269580334425 26.88506317138672 -14.608221054077148 30.549972534179688 65028 25.873153686523438
0.09267139434814453 -0.1815134584903717 9.807324409484863 -0.006922938395291567 -0.008094709366559982 0.008080990985035896 24.552112579345703 -15.606621742248535 31.778322219848633 65029 25.77730941772461
0.13779973983764648 -0.17675267159938812 9.802566528320312 -0.010337717831134796 -0.008481183089315891 0.0066979448311030865 24.115310668945312 -14.003120422363281 32.270469665527344 65030 26.06484603881836
0.09603875875473022 -0.1791415810585022 9.797808647155762 -0.007540449034422636 -0.004194037057459354 0.007892661727964878 25.128408432006836 -15.03812026977539 30.841421127319336 65031 25.9689998626709
0.10889148712158203 -0.200596421957016 9.793050765991211 -0.009634059853851795 -0.005175009369850159 0.010191922076046467 24.82406234741211 -14.033121109008789 29.90047264099121 65032 25.9689998626709
0.1029365062713623 -0.20774045586585999 9.797808647155762 -0.008490889333188534 -0.007760070730000734 0.010263167321681976 25.711761474609375 -13.298270225524902 30.712871551513672 65033 25.77730941772461
0.11318594217300415 -0.16007566452026367 9.797808647155762 -0.008061256259679794 -0.00911953765898943 0.009182795882225037 25.71341323852539 -14.895472526550293 30.691421508789062 65034 25.729385375976562
0.1440233588218689 -0.17198900878429413 9.800187110900879 -0.011259160935878754 -0.004502331838011742 0.011172094382345676 25.71341323852539 -14.895472526550293 30.691421508789062 65035 25.729385375976562
0.15758907794952393 -0.19343532621860504 9.802566528320312 -0.009436646476387978 -0.006497357506304979 0.008860674686729908 26.608610153198242 -15.02402114868164 32.12632369995117 65036 25.873153686523438
0.14290469884872437 -0.198196142911911 9.807324409484863 -0.010530618019402027 -0.005018097814172506 0.008944656699895859 26.608610153198242 -15.02402114868164 32.12632369995117 65037 25.921077728271484
0.11782282590866089 -0.20295125246047974 9.816841125488281 -0.007761896122246981 -0.007862988859415054 0.010772036388516426 25.276161193847656 -14.455521583557129 31.009422302246094 65038 25.921077728271484
0.09406286478042603 -0.21250976622104645 9.795429229736328 -0.010717704892158508 -0.00781466905027628 0.010669849812984467 25.436813354492188 -13.56692123413086 32.44972229003906 65039 25.873153686523438
0.11744874715805054 -0.17435237765312195 9.816841125488281 -0.011907699517905712 -0.009010488167405128 0.009790543466806412 24.399860382080078 -15.03152084350586 31.308822631835938 65040 25.921077728271484
0.13671976327896118 -0.16958872973918915 9.814460754394531 -0.009210968390107155 -0.009539156220853329 0.009106508456170559 26.46746253967285 -15.598821640014648 32.59252166748047 65041 25.873153686523438
0.13773268461227417 -0.17434385418891907 9.82397747039795 -0.008483384735882282 -0.007405156269669533 0.008573640137910843 26.023611068725586 -15.166670799255371 32.27632141113281 65042 25.873153686523438
0.10977506637573242 -0.19817624986171722 9.82397747039795 -0.01094975508749485 -0.005089539103209972 0.005730510223656893 25.426311492919922 -14.596970558166504 31.326223373413086 65043 25.921077728271484
0.12861132621765137 -0.19108618795871735 9.774019241333008 -0.013099105097353458 -0.007969389669597149 0.00786950159817934 24.693714141845703 -15.46742057800293 31.306272506713867 65044 25.921077728271484
0.10457652807235718 -0.1695830374956131 9.819219589233398 -0.007297901902347803 -0.008350074291229248 0.008537482470273972 26.026161193847656 -14.43677043914795 32.603172302246094 65045 25.68146324157715
0.10571110248565674 -0.217267706990242 9.802566528320312 -0.009361042641103268 -0.007498541381210089 0.006814941298216581 26.026161193847656 -14.43677043914795 32.603172302246094 65046 25.585617065429688
0.12751203775405884 -0.2006077915430069 9.78353500366211 -0.009103996679186821 -0.007882135920226574 0.008511584252119064 26.026161193847656 -14.43677043914795 32.603172302246094 65047 25.77730941772461
0.13179880380630493 -0.19584132730960846 9.78353500366211 -0.00980568677186966 -0.006848903372883797 0.011274367570877075 26.464162826538086 -15.60272216796875 32.275421142578125 65048 25.873153686523438
0.1325116753578186 -0.19583280384540558 9.790671348571777 -0.010105046443641186 -0.008105452172458172 0.009685127064585686 26.464162826538086 -15.60272216796875 32.275421142578125 65049 25.585617065429688
0.10871613025665283 -0.20536574721336365 9.790671348571777 -0.009845970198512077 -0.0076251039281487465 0.010471348650753498 25.133358001708984 -15.032270431518555 31.31707191467285 65050 25.873153686523438
0.13197404146194458 -0.19107197225093842 9.785913467407227 -0.004834974184632301 -0.009292718954384327 0.011249298229813576 25.133358001708984 -15.032270431518555 31.31707191467285 65051 25.873153686523438
0.1268022060394287 -0.16721968352794647 9.802566528320312 -0.00742281274870038 -0.012406562454998493 0.007949271239340305 25.716712951660156 -14.891572952270508 31.008522033691406 65052 25.729385375976562
0.10875964164733887 -0.1696370393037796 9.774019241333008 -0.012069341726601124 -0.00905267521739006 0.011009346693754196 24.849262237548828 -14.439471244812012 32.27286911010742 65053 26.112768173217773
0.10685384273529053 -0.1720174252986908 9.776397705078125 -0.007911969907581806 -0.005822374485433102 0.008480469696223736 25.72196388244629 -15.17612075805664 31.48027229309082 65054 25.873153686523438
0.10790973901748657 -0.19822455942630768 9.78353500366211 -0.00954502820968628 -0.005917459726333618 0.008413862437009811 26.462963104248047 -14.441121101379395 32.291019439697266 65055 25.77730941772461
0.09023505449295044 -0.20055948197841644 9.82397747039795 -0.007133779115974903 -0.007031094748526812 0.009144565090537071 26.462963104248047 -14.441121101379395 32.291019439697266 65056 25.68146324157715
0.09911322593688965 -0.19343248009681702 9.80494499206543 -0.012229404412209988 -0.008643767796456814 0.008581421338021755 25.136659622192383 -15.02837085723877 31.634170532226562 65057 25.873153686523438
0.09590637683868408 -0.20536290109157562 9.793050765991211 -0.007701129652559757 -0.006885989103466272 0.007416894193738699 25.136659622192383 -15.02837085723877 31.634170532226562 65058 25.68146324157715
0.10640972852706909 -0.17440636456012726 9.771639823913574 -0.00894235447049141 -0.007839948870241642 0.0072927819564938545 25.13290786743164 -14.596670150756836 31.322921752929688 65059 25.921077728271484
0.08976900577545166 -0.19584985077381134 9.776397705078125 -0.011378942057490349 -0.0033172236289829016 0.009547187946736813 24.701963424682617 -15.457671165466309 32.09902572631836 65060 26.06484603881836
0.07845908403396606 -0.21966516971588135 9.790671348571777 -0.010096471756696701 -0.004236828535795212 0.00877974834293127 25.426013946533203 -14.306571006774902 31.330121994018555 65061 25.68146324157715
0.11882144212722778 -0.16485349833965302 9.78829288482666 -0.01008067186921835 -0.00886477716267109 0.00839458778500557 25.85321044921875 -14.613020896911621 30.062772750854492 65062 25.729385375976562
0.11910200119018555 -0.18630266189575195 9.78829288482666 -0.009258134290575981 -0.007569409906864166 0.008040860295295715 26.441513061523438 -14.466470718383789 30.22987174987793 65063 25.77730941772461
0.11689627170562744 -0.18391941487789154 9.78829288482666 -0.011903638020157814 -0.007282600272446871 0.007969701662659645 26.603660583496094 -15.029870986938477 31.650671005249023 65064 25.921077728271484
0.13488095998764038 -0.1743779480457306 9.795429229736328 -0.009448663331568241 -0.008993007242679596 0.009634737856686115 26.603660583496094 -15.029870986938477 31.650671005249023 65065 25.9689998626709
0.09828734397888184 -0.20297682285308838 9.795429229736328 -0.008732475340366364 -0.006253798957914114 0.007923776283860207 25.434263229370117 -14.296821594238281 32.12287521362305 65066 26.06484603881836
0.1211082935333252 -0.21249839663505554 9.80494499206543 -0.011223840527236462 -0.006279716268181801 0.008323343470692635 25.434263229370117 -14.296821594238281 32.12287521362305 65067 26.06484603881836
0.12900477647781372 -0.2029995620250702 9.776397705078125 -0.011211483739316463 -0.009534692391753197 0.007806867361068726 26.449312210083008 -14.02112102508545 31.028472900390625 65068 25.729385375976562
0.129799485206604 -0.19107197225093842 9.785913467407227 -0.008193050511181355 -0.010430079884827137 0.008331953547894955 24.849262237548828 -14.439471244812012 32.27286911010742 65069 25.729385375976562
0.12238752841949463 -0.19584985077381134 9.776397705078125 -0.00851819384843111 -0.00869038701057434 0.006991516333073378 25.866409301757812 -14.597420692443848 31.331172943115234 65070 25.921077728271484
0.13289344310760498 -0.1886773705482483 9.795429229736328 -0.010664444416761398 -0.007192583754658699 0.00900423526763916 25.42721176147461 -15.468170166015625 31.31452178955078 65071 25.921077728271484
0.11063355207443237 -0.22205407917499542 9.785913467407227 -0.01349297072738409 -0.007974457927048206 0.008837427943944931 26.000659942626953 -13.740020751953125 30.234670639038086 65072 25.77730941772461
0.08911377191543579 -0.20298251509666443 9.790671348571777 -0.010266068391501904 -0.005046778824180365 0.008951772004365921 26.603660583496094 -15.029870986938477 31.650671005249023 65073 25.873153686523438
0.11069351434707642 -0.20303650200366974 9.745471000671387 -0.011923606507480145 -0.010546013712882996 0.00769698666408658 26.603660583496094 -15.029870986938477 31.650671005249023 65074 25.921077728271484
0.11964672803878784 -0.21248987317085266 9.812082290649414 -0.00938744843006134 -0.007603160105645657 0.009015901945531368 25.26506233215332 -14.904772758483887 29.893722534179688 65075 25.77730941772461
0.12678271532058716 -0.1839052140712738 9.800187110900879 -0.012686852365732193 -0.005152001976966858 0.010821017436683178 25.26506233215332 -14.904772758483887 29.893722534179688 65076 25.68146324157715
0.11146718263626099 -0.17675551772117615 9.800187110900879 -0.01225067488849163 -0.003506789216771722 0.009745689108967781 26.756362915039062 -14.441421508789062 32.29431915283203 65077 25.729385375976562
0.10322940349578857 -0.19107764959335327 9.781155586242676 -0.009529569186270237 -0.004794782493263483 0.007771113887429237 26.594959259033203 -14.604020118713379 30.863771438598633 65078 25.77730941772461
0.08479583263397217 -0.20536574721336365 9.790671348571777 -0.010630084201693535 -0.006320202723145485 0.00785005372017622 26.751413345336914 -14.447271347045898 31.81867218017578 65079 25.873153686523438
0.1173715591430664 -0.18391373753547668 9.793050765991211 -0.0088404081761837 -0.0052610523998737335 0.010213269852101803 25.423011779785156 -16.200023651123047 30.82912254333496 65080 26.06484603881836
0.10062545537948608 -0.17913874983787537 9.800187110900879 -0.0059354896657168865 -0.010818138718605042 0.011328238062560558 26.44196319580078 -14.902071952819824 30.22402000427246 65081 25.873153686523438
0.09501808881759644 -0.21014074981212616 9.78353500366211 -0.011589888483285904 -0.008417083881795406 0.008132045157253742 24.836511611938477 -14.89067268371582 30.99862289428711 65082 25.921077728271484
0.10477995872497559 -0.20059357583522797 9.795429229736328 -0.0109249297529459 -0.005436016246676445 0.007176276762038469 24.836511611938477 -14.89067268371582 30.99862289428711 65083 25.9689998626709
0.10728567838668823 -0.20774045586585999 9.797808647155762 -0.010983665473759174 -0.005549071356654167 0.009620998054742813 24.688312530517578 -15.037671089172363 30.836471557617188 65084 25.873153686523438
0.1073986291885376 -0.1982046663761139 9.800187110900879 -0.009851892478764057 -0.007528922986239195 0.008514149114489555 24.688312530517578 -15.037671089172363 30.836471557617188 65085 25.585617065429688
0.11946427822113037 -0.19583280384540558 9.790671348571777 -0.008461042307317257 -0.009028425440192223 0.008193522691726685 24.5476131439209 -14.448920249938965 31.476823806762695 65086 25.729385375976562
0.10827970504760742 -0.17200037837028503 9.790671348571777 -0.011835088953375816 -0.008225849829614162 0.010349801741540432 25.700214385986328 -14.911072731018066 29.42302131652832 65087 25.729385375976562
0.1296747922897339 -0.18153902888298035 9.785913467407227 -0.011633163318037987 -0.007407462224364281 0.009934017434716225 26.601558685302734 -16.19537353515625 31.31797218322754 65088 25.77730941772461
0.09382528066635132 -0.21251261234283447 9.793050765991211 -0.008547420613467693 -0.004321170970797539 0.007109004072844982 25.288610458374023 -13.713921546936035 32.28757095336914 65089 25.873153686523438
0.09579795598983765 -0.21254102885723114 9.769261360168457 -0.009164591319859028 -0.006171124521642923 0.007178262807428837 25.141159057617188 -14.586920738220215 32.11567306518555 65090 25.921077728271484
0.10493576526641846 -0.21250976622104645 9.795429229736328 -0.010011503472924232 -0.006707166321575642 0.008822530508041382 26.01626205444336 -16.04762077331543 31.471872329711914 65091 26.06484603881836
0.11302238702774048 -0.18391373753547668 9.793050765991211 -0.010075199417769909 -0.009373807348310947 0.007615482434630394 26.01626205444336 -16.04762077331543 31.471872329711914 65092 25.921077728271484
0.1075279712677002 -0.20537994801998138 9.778777122497559 -0.00935449916869402 -0.004493861459195614 0.0068199834786355495 26.604110717773438 -15.465470314025879 31.644821166992188 65093 25.873153686523438
0.11933958530426025 -0.18629983067512512 9.790671348571777 -0.006873119622468948 -0.006099650636315346 0.0062840599566698074 26.604110717773438 -15.465470314025879 31.644821166992188 65094 25.921077728271484
0.10223126411437988 -0.17199468612670898 9.795429229736328 -0.008933952078223228 -0.006659338250756264 0.011075866408646107 25.427513122558594 -15.758570671081543 31.310623168945312 65095 25.585617065429688
0.09737259149551392 -0.20301376283168793 9.764503479003906 -0.012078708037734032 -0.007583520840853453 0.008920831605792046 25.427513122558594 -15.758570671081543 31.310623168945312 65096 25.921077728271484
0.10723048448562622 -0.2244003713130951 9.816841125488281 -0.007705642841756344 -0.009026724845170975 0.006501430179923773 24.54926300048828 -16.046119689941406 31.455373764038086 65097 25.921077728271484
0.13133835792541504 -0.18151913583278656 9.802566528320312 -0.006416181102395058 -0.006528802216053009 0.008475340902805328 26.456363677978516 -16.04806900024414 31.476823806762695 65098 26.208614349365234
0.1147722601890564 -0.16961714625358582 9.790671348571777 -0.008305834606289864 -0.005827443674206734 0.009448396041989326 24.53681182861328 -16.7877197265625 30.177221298217773 65099 25.537694931030273
0.10889148712158203 -0.200596421957016 9.793050765991211 -0.01043363194912672 -0.004992785397917032 0.008213375695049763 25.710412979125977 -16.78891944885254 30.190420150756836 65100 25.441848754882812
0.1147451400756836 -0.22205692529678345 9.78353500366211 -0.009991533122956753 -0.003443753346800804 0.009095245972275734 25.72991371154785 -14.875972747802734 32.276920318603516 65101 25.729385375976562
0.1046934723854065 -0.21487027406692505 9.814460754394531 -0.007686292286962271 -0.008864173665642738 0.008726303465664387 25.876611709594727 -14.87612247467041 32.27857208251953 65102 25.77730941772461
0.09511935710906982 -0.18153618276119232 9.78829288482666 -0.009381525218486786 -0.007699340581893921 0.010973101481795311 25.862659454345703 -15.764870643615723 30.839921951293945 65103 25.873153686523438
0.12090963125228882 -0.17913022637367249 9.807324409484863 -0.00695323571562767 -0.007239203434437513 0.007414329331368208 25.71461296081543 -14.457921028137207 30.85582160949707 65104 25.921077728271484
0.12479060888290405 -0.20056232810020447 9.821599006652832 -0.011389375664293766 -0.005361779127269983 0.006674523465335369 25.72451400756836 -14.446221351623535 31.80712127685547 65105 25.873153686523438
0.10354107618331909 -0.21491006016731262 9.781155586242676 -0.009741478599607944 -0.0072448765859007835 0.008050540462136269 25.297611236572266 -14.430171012878418 33.07057189941406 65106 25.68146324157715
0.12009537220001221 -0.20774328708648682 9.795429229736328 -0.009672759100794792 -0.005500114988535643 0.005742176901549101 24.84176254272461 -15.175220489501953 31.470373153686523 65107 25.729385375976562
0.12179934978485107 -0.2053913176059723 9.769261360168457 -0.008634080179035664 -0.008465402759611607 0.008234231732785702 24.696563720703125 -15.027921676635742 31.629220962524414 65108 25.873153686523438
0.10105478763580322 -0.19107764959335327 9.781155586242676 -0.009161149151623249 -0.007544097490608692 0.007309578359127045 25.861160278320312 -14.312870979309082 30.85942268371582 65109 25.77730941772461
0.10019314289093018 -0.200596421957016 9.793050765991211 -0.007126273587346077 -0.00667618028819561 0.007455037906765938 24.687862396240234 -14.602070808410645 30.842321395874023 65110 25.873153686523438
0.1177026629447937 -0.1910606026649475 9.795429229736328 -0.008811521343886852 -0.003879641881212592 0.009838194586336613 24.687862396240234 -14.602070808410645 30.842321395874023 65111 25.921077728271484
0.0994918942451477 -0.21967369318008423 9.78353500366211 -0.010298396460711956 -0.005055216606706381 0.009195532649755478 26.743911743164062 -15.183021545410156 31.016172409057617 65112 25.68146324157715
0.1099744439125061 -0.17436374723911285 9.807324409484863 -0.01192801259458065 -0.006523274816572666 0.009260240942239761 26.743911743164062 -15.183021545410156 31.016172409057617 65113 25.68146324157715
0.10549747943878174 -0.1982274055480957 9.781155586242676 -0.011615674942731857 -0.00542084127664566 0.008380847983062267 24.836511611938477 -14.89067268371582 30.99862289428711 65114 25.873153686523438
0.09702503681182861 -0.17915579676628113 9.785913467407227 -0.010701284743845463 -0.00934175867587328 0.008332531899213791 26.460412979125977 -16.770170211791992 31.78417205810547 65115 25.537694931030273
0.11289453506469727 -0.20777739584445953 9.766881942749023 -0.008399826474487782 -0.007638577371835709 0.00757468631491065 25.124359130859375 -14.316020965576172 30.534072875976562 65116 25.921077728271484
0.12338411808013916 -0.1838938444852829 9.80970287322998 -0.010999124497175217 -0.006671748124063015 0.010263745673000813 25.418962478637695 -15.477920532226562 30.521772384643555 65117 25.921077728271484
0.11164253950119019 -0.1719861626625061 9.802566528320312 -0.009002500213682652 -0.005716088693588972 0.00869576632976532 25.72991371154785 -14.875972747802734 32.276920318603516 65118 25.77730941772461
0.09813147783279419 -0.1910606026649475 9.795429229736328 -0.009379943832755089 -0.007248245179653168 0.007326374761760235 26.159812927246094 -14.5977201461792 31.33447265625 65119 25.921077728271484
0.1027495265007019 -0.1934410035610199 9.797808647155762 -0.008142780512571335 -0.008022172376513481 0.009271329268813133 26.159812927246094 -14.5977201461792 31.33447265625 65120 25.729385375976562
0.10543060302734375 -0.19581858813762665 9.802566528320312 -0.005940791219472885 -0.007621097378432751 0.007418880704790354 25.141159057617188 -14.586920738220215 32.11567306518555 65121 25.873153686523438
0.14000999927520752 -0.17677825689315796 9.781155586242676 -0.011901604942977428 -0.006418656557798386 0.0070592802949249744 25.141159057617188 -14.586920738220215 32.11567306518555 65122 25.873153686523438
0.11455810070037842 -0.20775750279426575 9.78353500366211 -0.009728051722049713 -0.006986143998801708 0.008318213745951653 25.133808135986328 -15.467869758605957 31.311222076416016 65123 26.06484603881836
0.1376361846923828 -0.20059072971343994 9.797808647155762 -0.0109100928530097 -0.007414198946207762 0.008485686033964157 23.96261215209961 -14.591570854187012 31.626821517944336 65124 25.921077728271484
0.10608112812042236 -0.19104355573654175 9.80970287322998 -0.008850393816828728 -0.006892758887261152 0.010076912119984627 24.408109664916992 -15.021771430969238 32.1015739440918 65125 25.921077728271484
0.09890681505203247 -0.19581858813762665 9.802566528320312 -0.006220800336450338 -0.00871509499847889 0.008054513484239578 25.137409210205078 -15.754371643066406 31.624422073364258 65126 25.921077728271484
0.12755805253982544 -0.18866316974163055 9.807324409484863 -0.009899679571390152 -0.008660038001835346 0.009400658309459686 26.01506233215332 -14.886021614074707 31.487472534179688 65127 25.9689998626709
0.11307293176651001 -0.16961145401000977 9.795429229736328 -0.0112582016736269 -0.00715209636837244 0.009477525018155575 25.866111755371094 -14.307021141052246 31.335073471069336 65128 25.77730941772461
0.10865378379821777 -0.20059926807880402 9.790671348571777 -0.010514197871088982 -0.0065451860427856445 0.006607338320463896 25.27526092529297 -16.78261947631836 30.661121368408203 65129 25.873153686523438
0.11138546466827393 -0.18867453932762146 9.797808647155762 -0.006225652061402798 -0.005105204414576292 0.006881461478769779 26.009660720825195 -14.456271171569824 31.017671585083008 65130 25.873153686523438
0.09968668222427368 -0.19821886718273163 9.78829288482666 -0.008224308490753174 -0.006924808025360107 0.00935986265540123 26.009660720825195 -14.456271171569824 31.017671585083008 65131 25.921077728271484
0.10516172647476196 -0.19343817234039307 9.800187110900879 -0.010082082822918892 -0.006627860479056835 0.007352851796895266 26.449312210083008 -14.02112102508545 31.028472900390625 65132 26.06484603881836
0.10235595703125 -0.18152765929698944 9.795429229736328 -0.009908595122396946 -0.006778034847229719 0.010048449039459229 26.449312210083008 -14.02112102508545 31.028472900390625 65133 25.873153686523438
0.10479623079299927 -0.21730464696884155 9.771639823913574 -0.008439038880169392 -0.004901069216430187 0.007555816322565079 24.403610229492188 -15.463220596313477 31.620071411132812 65134 25.873153686523438
0.09899318218231201 -0.18154187500476837 9.78353500366211 -0.010313855484127998 -0.006177893839776516 0.009838281199336052 25.426013946533203 -14.306571006774902 31.330121994018555 65135 25.873153686523438
0.1122736930847168 -0.18389669060707092 9.807324409484863 -0.008875217288732529 -0.006546282209455967 0.00863114558160305 26.437763214111328 -14.034770965576172 29.918622970581055 65136 25.873153686523438
0.11393404006958008 -0.21727338433265686 9.797808647155762 -0.007973184809088707 -0.007212223019450903 0.009099305607378483 24.67931365966797 -14.32142162322998 30.0534725189209 65137 25.921077728271484
0.14847791194915771 -0.19820749759674072 9.797808647155762 -0.011806652881205082 -0.007257287856191397 0.007238419726490974 26.161460876464844 -16.194923400878906 31.31302261352539 65138 25.873153686523438
0.12479984760284424 -0.19584700465202332 9.778777122497559 -0.007763305678963661 -0.005626071710139513 0.009730299934744835 26.467012405395508 -15.163220405578613 32.59836959838867 65139 25.441848754882812
0.11354053020477295 -0.2053600549697876 9.795429229736328 -0.010790316388010979 -0.00859930831938982 0.010110591538250446 26.467012405395508 -15.163220405578613 32.59836959838867 65140 25.729385375976562
0.116416335105896 -0.18628276884555817 9.80494499206543 -0.011968295089900494 -0.007299475371837616 0.008457222022116184 25.27406120300293 -15.62102222442627 30.676721572875977 65141 26.06484603881836
0.12233227491378784 -0.21250976622104645 9.795429229736328 -0.010956810787320137 -0.005031604319810867 0.010156342759728432 25.27406120300293 -15.62102222442627 30.676721572875977 65142 25.873153686523438
0.123782217502594 -0.19344954192638397 9.790671348571777 -0.008774789981544018 -0.007893942296504974 0.008031180128455162 25.27406120300293 -15.62102222442627 30.676721572875977 65143 26.06484603881836
0.10942196846008301 -0.18393078446388245 9.778777122497559 -0.009841905906796455 -0.005897216033190489 0.008650506846606731 24.84056282043457 -14.013620376586914 31.485973358154297 65144 25.921077728271484
0.09941327571868896 -0.198196142911911 9.807324409484863 -0.01068379357457161 -0.007355136331170797 0.006779361981898546 24.84056282043457 -14.013620376586914 31.485973358154297 65145 25.77730941772461
0.12144726514816284 -0.18389099836349487 9.812082290649414 -0.009529569186270237 -0.004794782493263483 0.007771113887429237 26.00756072998047 -15.621771812438965 30.68497085571289 65146 25.873153686523438
0.1120983362197876 -0.18866600096225739 9.80494499206543 -0.008890676312148571 -0.007668959442526102 0.009273894131183624 26.00756072998047 -15.621771812438965 30.68497085571289 65147 25.873153686523438
0.10111713409423828 -0.19584417343139648 9.781155586242676 -0.007857298478484154 -0.007437205873429775 0.007856590673327446 25.420612335205078 -13.87682056427002 30.860321044921875 65148 25.921077728271484
0.1016119122505188 -0.1791529506444931 9.78829288482666 -0.007573398761451244 -0.0073033347725868225 0.010088578797876835 26.006811141967773 -14.895771980285645 30.694721221923828 65149 25.921077728271484
0.1192694902420044 -0.2172876000404358 9.785913467407227 -0.008198074996471405 -0.009508201852440834 0.011847365647554398 26.006811141967773 -14.895771980285645 30.694721221923828 65150 25.77730941772461
0.09396940469741821 -0.2053600549697876 9.795429229736328 -0.007915412075817585 -0.004449401516467333 0.008349155075848103 26.017911911010742 -14.446520805358887 31.810420989990234 65151 25.441848754882812
0.10079306364059448 -0.2101236879825592 9.797808647155762 -0.008181032724678516 -0.007934428751468658 0.00755788991227746 26.017911911010742 -14.446520805358887 31.810420989990234 65152 25.729385375976562
0.13084357976913452 -0.19821034371852875 9.795429229736328 -0.009050287306308746 -0.006847202777862549 0.00958227552473545 25.143709182739258 -13.857020378112793 32.44252014160156 65153 25.873153686523438
0.10722339153289795 -0.20297399163246155 9.797808647155762 -0.01204637996852398 -0.0075750830583274364 0.008677070960402489 25.143709182739258 -13.857020378112793 32.44252014160156 65154 25.921077728271484
0.13198888301849365 -0.17674414813518524 9.80970287322998 -0.008852874860167503 -0.008169550448656082 0.008251028135418892 26.01011085510254 -14.89187240600586 31.011821746826172 65155 25.873153686523438
0.10300660133361816 -0.17675267159938812 9.802566528320312 -0.0095415860414505 -0.007290432695299387 0.008545177057385445 26.736112594604492 -15.628372192382812 30.217571258544922 65156 25.921077728271484
0.12513798475265503 -0.22442026436328888 9.800187110900879 -0.009583278559148312 -0.0058297161012887955 0.006700422614812851 26.162813186645508 -14.303421020507812 31.655471801757812 65157 25.9689998626709
0.10836869478225708 -0.18150776624679565 9.812082290649414 -0.008826468139886856 -0.008064932189881802 0.006050067022442818 25.71581268310547 -14.020371437072754 31.020221710205078 65158 25.729385375976562
0.09506869316101074 -0.19583848118782043 9.785913467407227 -0.010155655443668365 -0.004762733355164528 0.008488164283335209 25.71581268310547 -14.020371437072754 31.020221710205078 65159 26.06484603881836
0.0904461145401001 -0.19581574201583862 9.80494499206543 -0.011639087460935116 -0.007311281282454729 0.007976817898452282 25.13290786743164 -14.596670150756836 31.322921752929688 65160 25.729385375976562
0.12142527103424072 -0.1767924576997757 9.769261360168457 -0.008839447051286697 -0.007910816930234432 0.008518699556589127 25.13290786743164 -14.596670150756836 31.322921752929688 65161 25.921077728271484
0.10488581657409668 -0.16963134706020355 9.778777122497559 -0.008673742413520813 -0.006140742916613817 0.005479054991155863 25.12390899658203 -13.880420684814453 30.5399227142334 65162 25.921077728271484
0.10317885875701904 -0.20537994801998138 9.778777122497559 -0.011070151813328266 -0.007005291059613228 0.0060577611438930035 25.426761627197266 -15.032570838928223 31.32037353515625 65163 26.06484603881836
0.1106531023979187 -0.20536857843399048 9.78829288482666 -0.01016705110669136 -0.004157522693276405 0.007310069631785154 25.135910034179688 -14.30237102508545 31.6439208984375 65164 25.77730941772461
0.11379760503768921 -0.18867169320583344 9.800187110900879 -0.010278084315359592 -0.007542429491877556 0.009725835174322128 26.751863479614258 -14.882872581481934 31.812822341918945 65165 25.921077728271484
0.11432814598083496 -0.1720060557126999 9.785913467407227 -0.009227837435901165 -0.008424916304647923 0.008707520551979542 25.8581600189209 -14.607171058654785 30.538423538208008 65166 25.77730941772461
0.11568397283554077 -0.20297682285308838 9.795429229736328 -0.012318882159888744 -0.008314166218042374 0.00762317655608058 24.827362060546875 -14.029220581054688 30.217571258544922 65167 25.393924713134766
0.11500680446624756 -0.2030109316110611 9.766881942749023 -0.014069236814975739 -0.005947350524365902 0.007757547777146101 24.827362060546875 -14.029220581054688 30.217571258544922 65168 25.729385375976562
0.10909336805343628 -0.20056800544261932 9.816841125488281 -0.012228780426084995 -0.0055429064668715 0.006629263982176781 25.2674617767334 -14.029670715332031 30.22252082824707 65169 25.873153686523438
0.12655681371688843 -0.20297682285308838 9.795429229736328 -0.011155742220580578 -0.00763581320643425 0.007967136800289154 25.2674617767334 -14.029670715332031 30.22252082824707 65170 25.921077728271484
0.12724316120147705 -0.1982274055480957 9.781155586242676 -0.00895533338189125 -0.007685834541916847 0.009761414490640163 25.692712783813477 -15.646821975708008 28.620521545410156 65171 26.112768173217773
0.1306995153427124 -0.20536290109157562 9.793050765991211 -0.008248682133853436 -0.006165482569485903 0.010650401934981346 25.268362045288086 -14.900872230529785 30.2108211517334 65172 25.68146324157715
0.11548209190368652 -0.20300523936748505 9.771639823913574 -0.011143726296722889 -0.0051401639357209206 0.0071930731646716595 25.421812057495117 -15.038420677185059 30.844722747802734 65173 26.06484603881836
0.11533331871032715 -0.2125154584646225 9.790671348571777 -0.010424268431961536 -0.006461939308792353 0.010301889851689339 24.531112670898438 -14.46842098236084 29.89132308959961 65174 25.921077728271484
0.09525567293167114 -0.21013790369033813 9.785913467407227 -0.010100984014570713 -0.0063775647431612015 0.007864285260438919 25.282312393188477 -15.611271858215332 31.469472885131836 65175 25.921077728271484
0.08989369869232178 -0.2053827941417694 9.776397705078125 -0.012411978095769882 -0.009299603290855885 0.011222079396247864 26.15606117248535 -15.765170097351074 30.84322166442871 65176 25.9689998626709
0.09078192710876465 -0.20060494542121887 9.785913467407227 -0.011042850092053413 -0.006074975710362196 0.009329413063824177 26.15606117248535 -15.765170097351074 30.84322166442871 65177 25.9689998626709
0.09208309650421143 -0.19105492532253265 9.800187110900879 -0.010461108759045601 -0.008611112833023071 0.00963018648326397 26.170612335205078 -13.858070373535156 32.454071044921875 65178 25.729385375976562
0.10403120517730713 -0.2005765289068222 9.80970287322998 -0.009443530812859535 -0.003751411335542798 0.008598044514656067 26.170612335205078 -13.858070373535156 32.454071044921875 65179 25.585617065429688
0.08830738067626953 -0.19584132730960846 9.78353500366211 -0.011250248178839684 -0.006384334061294794 0.01052430272102356 25.997661590576172 -14.034320831298828 29.913671493530273 65180 25.9689998626709
0.0840945839881897 -0.2244429886341095 9.781155586242676 -0.010566836223006248 -0.004066410940140486 0.006320795975625515 26.00756072998047 -15.621771812438965 30.68497085571289 65181 25.77730941772461
0.11020427942276001 -0.21011516451835632 9.80494499206543 -0.010311312973499298 -0.00837656483054161 0.0044969841837882996 26.152462005615234 -15.478670120239258 30.5300235748291 65182 25.873153686523438
0.10024839639663696 -0.1839364767074585 9.774019241333008 -0.011235859245061874 -0.008775366470217705 0.009097406640648842 23.946561813354492 -15.046670913696289 30.035472869873047 65183 25.921077728271484
0.12476396560668945 -0.19582143425941467 9.800187110900879 -0.010690850205719471 -0.00729720201343298 0.01120519544929266 26.60321044921875 -14.594270706176758 31.65652084350586 65184 25.873153686523438
0.09468692541122437 -0.20299386978149414 9.781155586242676 -0.00893033854663372 -0.005344299133867025 0.00651871832087636 26.88506317138672 -14.608221054077148 30.549972534179688 65185 25.921077728271484
0.0959615707397461 -0.18870295584201813 9.774019241333008 -0.010230298154056072 -0.0064113144762814045 0.008839326910674572 26.88506317138672 -14.608221054077148 30.549972534179688 65186 26.06484603881836
0.08824038505554199 -0.19343248009681702 9.80494499206543 -0.011625660583376884 -0.007052547298371792 0.008244490250945091 26.027360916137695 -15.598371505737305 32.58757019042969 65187 25.921077728271484
0.09003317356109619 -0.2005878984928131 9.800187110900879 -0.011125446297228336 -0.008491321466863155 0.00863379705697298 26.027360916137695 -15.598371505737305 32.58757019042969 65188 25.921077728271484
0.12303817272186279 -0.19107481837272644 9.78353500366211 -0.01119055226445198 -0.008921043947339058 0.006385012064129114 24.67961311340332 -14.611821174621582 30.049571990966797 65189 25.921077728271484
0.11526387929916382 -0.18632255494594574 9.771639823913574 -0.009526127018034458 -0.006167755927890539 0.007902429439127445 27.179962158203125 -14.461370468139648 30.71377182006836 65190 25.537694931030273
0.11928904056549072 -0.20060209929943085 9.78829288482666 -0.0113053685054183 -0.0051823509857058525 0.008411876857280731 25.272109985351562 -13.733421325683594 30.702072143554688 65191 25.441848754882812
0.10544687509536743 -0.21252965927124023 9.778777122497559 -0.009386827237904072 -0.004502298776060343 0.007063744124025106 25.272109985351562 -13.733421325683594 30.702072143554688 65192 25.77730941772461
0.10403120517730713 -0.2005765289068222 9.80970287322998 -0.010289480909705162 -0.006937219295650721 0.008547741919755936 26.596158981323242 -15.765620231628418 30.84817123413086 65193 25.873153686523438
0.141529381275177 -0.18391089141368866 9.795429229736328 -0.013177190907299519 -0.008244997821748257 0.008089350536465645 26.596158981323242 -15.765620231628418 30.84817123413086 65194 25.729385375976562
0.13267523050308228 -0.17199468612670898 9.795429229736328 -0.009793157689273357 -0.007415866944938898 0.006069428287446499 25.288911819458008 -14.004321098327637 32.283668518066406 65195 25.921077728271484
0.1214829683303833 -0.1839165836572647 9.790671348571777 -0.011863356456160545 -0.006506399717181921 0.008772719651460648 25.288911819458008 -14.004321098327637 32.283668518066406 65196 25.77730941772461
0.12469708919525146 -0.19341260194778442 9.821599006652832 -0.009851892478764057 -0.007528922986239195 0.008514149114489555 25.281862258911133 -15.175670623779297 31.475322723388672 65197 25.873153686523438
0.11679500341415405 -0.21252398192882538 9.78353500366211 -0.006346499547362328 -0.007433805149048567 0.004472406581044197 25.281862258911133 -15.175670623779297 31.475322723388672 65198 25.585617065429688
0.11273413896560669 -0.19821886718273163 9.78829288482666 -0.007155609782785177 -0.008470439352095127 0.005093807354569435 26.454713821411133 -14.450870513916016 31.498273849487305 65199 25.921077728271484
0.11865323781967163 -0.1910492330789566 9.80494499206543 -0.009480992332100868 -0.009001445025205612 0.009878498502075672 26.018661499023438 -15.172520637512207 31.800670623779297 65200 25.873153686523438
0.10550981760025024 -0.16011543571949005 9.764503479003906 -0.008542568422853947 -0.007931060157716274 0.008282056078314781 25.116409301757812 -14.616169929504395 29.7374210357666 65201 25.873153686523438
0.11657685041427612 -0.19584132730960846 9.78353500366211 -0.011404834687709808 -0.006484455894678831 0.0073172724805772305 25.26911163330078 -15.626872062683105 30.20107078552246 65202 25.921077728271484
0.08111363649368286 -0.21730181574821472 9.774019241333008 -0.007891037501394749 -0.0052087269723415375 0.007058614864945412 25.87091064453125 -15.755121231079102 31.632671356201172 65203 25.77730941772461
0.0904000997543335 -0.20776033401489258 9.781155586242676 -0.01172061450779438 -0.006213915999978781 0.008065351285040379 25.128408432006836 -15.03812026977539 30.841421127319336 65204 25.68146324157715
0.10947966575622559 -0.19105492532253265 9.800187110900879 -0.00867842510342598 -0.010969490744173527 0.009252055548131466 25.128408432006836 -15.03812026977539 30.841421127319336 65205 25.921077728271484
0.13272982835769653 -0.2125154584646225 9.790671348571777 -0.00775139918550849 -0.009293897077441216 0.006477518007159233 25.283660888671875 -13.719771385192871 31.811922073364258 65206 25.729385375976562
0.12174469232559204 -0.16487056016921997 9.774019241333008 -0.01218912098556757 -0.007867567241191864 0.009384440258145332 25.283660888671875 -13.719771385192871 31.811922073364258 65207 25.77730941772461
0.10786676406860352 -0.1767725646495819 9.785913467407227 -0.00977132748812437 -0.005976521875709295 0.01012018509209156 24.550312042236328 -17.06252098083496 31.441722869873047 65208 25.77730941772461
0.10430467128753662 -0.20059926807880402 9.790671348571777 -0.008268032222986221 -0.006328035145998001 0.008425530046224594 25.70966339111328 -16.06291961669922 30.200170516967773 65209 25.729385375976562
0.10588634014129639 -0.21249839663505554 9.80494499206543 -0.014810248278081417 -0.008340083062648773 0.00802274327725172 25.439512252807617 -16.180522918701172 32.41461944580078 65210 25.873153686523438
0.1319623589515686 -0.17200320959091187 9.78829288482666 -0.007726575247943401 -0.009640374220907688 0.007923285476863384 26.006811141967773 -14.895771980285645 30.694721221923828 65211 25.873153686523438
0.1214829683303833 -0.1839165836572647 9.790671348571777 -0.00757587980479002 -0.00858012679964304 0.0082626948133111 25.26626205444336 -16.066370010375977 29.878122329711914 65212 25.873153686523438
0.11601579189300537 -0.15294301509857178 9.78353500366211 -0.009841905906796455 -0.005897216033190489 0.008650506846606731 25.275409698486328 -13.729521751403809 31.01917266845703 65213 25.873153686523438
0.10449165105819702 -0.21489869058132172 9.790671348571777 -0.011817600578069687 -0.006239228416234255 0.008796632289886475 25.275409698486328 -13.729521751403809 31.01917266845703 65214 25.921077728271484
0.10955828428268433 -0.21253250539302826 9.776397705078125 -0.008986080065369606 -0.007243176456540823 0.006358448415994644 25.709213256835938 -15.62732219696045 30.20602035522461 65215 25.921077728271484
0.08324074745178223 -0.19820749759674072 9.797808647155762 -0.0094828512519598 -0.00717737665399909 0.006100456230342388 25.709213256835938 -15.62732219696045 30.20602035522461 65216 25.921077728271484
0.09914439916610718 -0.19581574201583862 9.80494499206543 -0.008112933486700058 -0.009290528483688831 0.007201684173196554 26.010860443115234 -15.61787223815918 31.002071380615234 65217 25.9689998626709
0.13343572616577148 -0.1910804957151413 9.778777122497559 -0.008272094652056694 -0.008055922575294971 0.010246370919048786 25.26131248474121 -16.072219848632812 29.4024715423584 65218 25.77730941772461
0.10750448703765869 -0.16724242269992828 9.78353500366211 -0.012554098851978779 -0.006491225212812424 0.009977290406823158 25.273611068725586 -15.185420989990234 30.682571411132812 65219 25.77730941772461
0.08085966110229492 -0.20059357583522797 9.795429229736328 -0.00878511555492878 -0.003775023389607668 0.007637233939021826 25.284412384033203 -14.445771217346191 31.80217170715332 65220 25.729385375976562
0.0880502462387085 -0.21252965927124023 9.778777122497559 -0.011190103366971016 -0.008508196100592613 0.009121318347752094 26.147062301635742 -15.048920631408691 30.060222625732422 65221 25.77730941772461
0.10903555154800415 -0.19344384968280792 9.795429229736328 -0.010467031970620155 -0.008514933288097382 0.007672987412661314 25.421812057495117 -15.038420677185059 30.844722747802734 65222 25.729385375976562
0.10670512914657593 -0.18152765929698944 9.795429229736328 -0.010042420588433743 -0.008952520787715912 0.01010802760720253 25.421812057495117 -15.038420677185059 30.844722747802734 65223 25.921077728271484
0.13068771362304688 -0.18629413843154907 9.795429229736328 -0.013009625487029552 -0.008298991248011589 0.008827746845781803 26.163562774658203 -15.029420852661133 31.645721435546875 65224 25.729385375976562
0.12045776844024658 -0.21727338433265686 9.797808647155762 -0.012855489738285542 -0.008611718192696571 0.009298471733927727 26.163562774658203 -15.029420852661133 31.645721435546875 65225 25.9689998626709
0.08426284790039062 -0.1982472836971283 9.764503479003906 -0.011229312978684902 -0.00577068654820323 0.00910244882106781 24.393259048461914 -16.638469696044922 30.4946231842041 65226 25.729385375976562
0.10533386468887329 -0.22206544876098633 9.776397705078125 -0.010045242495834827 -0.0044786869548261166 0.008024554699659348 26.606660842895508 -13.136421203613281 32.15167236328125 65227 25.77730941772461
0.10675263404846191 -0.20062199234962463 9.771639823913574 -0.008696705102920532 -0.007618334610015154 0.007811331190168858 25.13620948791504 -14.59277057647705 31.6400203704834 65228 25.77730941772461
0.09541928768157959 -0.18629983067512512 9.790671348571777 -0.013698335736989975 -0.007419872097671032 0.00912189669907093 26.156511306762695 -16.200773239135742 30.837371826171875 65229 25.921077728271484
0.11921036243438721 -0.17912453413009644 9.812082290649414 -0.011812126263976097 -0.006748258601874113 0.008017526008188725 25.273611068725586 -15.185420989990234 30.682571411132812 65230 25.68146324157715
0.09483110904693604 -0.19584132730960846 9.78353500366211 -0.011164655908942223 -0.005753811448812485 0.008614927530288696 25.730663299560547 -15.601972579956055 32.26716995239258 65231 25.873153686523438
0.0799831748008728 -0.22444015741348267 9.78353500366211 -0.010084114037454128 -0.007491804659366608 0.008263273164629936 25.730663299560547 -15.601972579956055 32.26716995239258 65232 26.06484603881836
0.08423411846160889 -0.2196481078863144 9.80494499206543 -0.008949859999120235 -0.008194862864911556 0.008982309140264988 24.541011810302734 -16.055870056152344 30.662622451782227 65233 25.77730941772461
0.10394942760467529 -0.2124955654144287 9.807324409484863 -0.009739619679749012 -0.009068944491446018 0.011828582733869553 24.541011810302734 -16.055870056152344 30.662622451782227 65234 25.585617065429688
0.11842018365859985 -0.18869441747665405 9.781155586242676 -0.009886251762509346 -0.008401303552091122 0.009668330661952496 26.008909225463867 -13.730271339416504 31.027421951293945 65235 25.68146324157715
0.12029016017913818 -0.18628846108913422 9.800187110900879 -0.012041864916682243 -0.005434347782284021 0.009592534974217415 24.399860382080078 -15.03152084350586 31.308822631835938 65236 25.921077728271484
0.11501389741897583 -0.22443731129169464 9.785913467407227 -0.009143831208348274 -0.008245487697422504 0.010444872081279755 25.28036117553711 -13.723670959472656 31.494823455810547 65237 25.68146324157715
0.1066739559173584 -0.17914442718029022 9.795429229736328 -0.007310707122087479 -0.0055079469457268715 0.006317652761936188 25.285612106323242 -15.607372283935547 31.786571502685547 65238 25.921077728271484
0.12025898694992065 -0.1839052140712738 9.800187110900879 -0.010803744196891785 -0.008858040906488895 0.009842919185757637 25.87466049194336 -14.587671279907227 32.123924255371094 65239 25.729385375976562
0.1356797218322754 -0.21727338433265686 9.797808647155762 -0.010201070457696915 -0.010780529119074345 0.008721839636564255 24.69326400756836 -15.031821250915527 31.312122344970703 65240 25.77730941772461
0.10087954998016357 -0.19584700465202332 9.778777122497559 -0.012718669138848782 -0.008223053999245167 0.006633902434259653 24.69326400756836 -15.031821250915527 31.312122344970703 65241 25.873153686523438
0.12895417213439941 -0.21730181574821472 9.774019241333008 -0.012953883968293667 -0.006400113459676504 0.008988017216324806 26.017911911010742 -14.446520805358887 31.810420989990234 65242 25.921077728271484
0.09122604131698608 -0.1982160359621048 9.790671348571777 -0.008744833059608936 -0.002998822834342718 0.008440252393484116 26.017911911010742 -14.446520805358887 31.810420989990234 65243 25.873153686523438
0.09652572870254517 -0.1982046663761139 9.800187110900879 -0.006872670259326696 -0.005686802323907614 0.0090203657746315 25.421812057495117 -15.038420677185059 30.844722747802734 65244 25.921077728271484
0.10644805431365967 -0.1982160359621048 9.790671348571777 -0.008367498405277729 -0.00763014005497098 0.007330925669521093 25.421812057495117 -15.038420677185059 30.844722747802734 65245 25.921077728271484
0.1360068917274475 -0.16959725320339203 9.807324409484863 -0.009456617757678032 -0.009760770946741104 0.008587959222495556 25.721664428710938 -14.885722160339355 31.484172821044922 65246 25.873153686523438
0.12467515468597412 -0.18631403148174286 9.778777122497559 -0.012816616334021091 -0.00559860048815608 0.009059754200279713 25.721664428710938 -14.885722160339355 31.484172821044922 65247 25.873153686523438
0.1115490198135376 -0.16483645141124725 9.802566528320312 -0.010410841554403305 -0.00620320625603199 0.010569563135504723 24.701963424682617 -15.457671165466309 32.09902572631836 65248 26.06484603881836
0.10299414396286011 -0.214864581823349 9.819219589233398 -0.0081879161298275 -0.0051884837448596954 0.007295259274542332 26.015811920166016 -15.612021446228027 31.47772216796875 65249 25.729385375976562
0.11022835969924927 -0.19107197225093842 9.785913467407227 -0.0123298279941082 -0.007296106778085232 0.009181388653814793 25.72076416015625 -14.014520645141602 31.495872497558594 65250 25.537694931030273
0.1216505765914917 -0.21490152180194855 9.78829288482666 -0.01001601479947567 -0.008847902528941631 0.00790706742554903 25.72076416015625 -14.014520645141602 31.495872497558594 65251 25.921077728271484
0.13346225023269653 -0.19582143425941467 9.800187110900879 -0.011280994862318039 -0.0059416769072413445 0.00712133664637804 25.71461296081543 -16.057069778442383 30.67582130432129 65252 25.873153686523438
0.13992828130722046 -0.18869726359844208 9.778777122497559 -0.013956003822386265 -0.010137137025594711 0.009377410635352135 25.71461296081543 -16.057069778442383 30.67582130432129 65253 25.729385375976562
0.1041799783706665 -0.19106629490852356 9.790671348571777 -0.010542014613747597 -0.004412887152284384 0.007766562979668379 24.688312530517578 -15.037671089172363 30.836471557617188 65254 25.873153686523438
0.09786725044250488 -0.18632255494594574 9.771639823913574 -0.011005047708749771 -0.006575567647814751 0.008306547068059444 25.7080135345459 -14.465721130371094 30.221620559692383 65255 26.06484603881836
0.10257887840270996 -0.19585269689559937 9.774019241333008 -0.008243657648563385 -0.007087361067533493 0.007134989835321903 25.859060287475586 -15.478370666503906 30.526723861694336 65256 26.208614349365234
0.11089068651199341 -0.20536574721336365 9.790671348571777 -0.008976714685559273 -0.00871233083307743 0.008446963503956795 24.103309631347656 -15.180320739746094 30.98647117614746 65257 25.68146324157715
0.11398464441299438 -0.20297114551067352 9.800187110900879 -0.010681313462555408 -0.00607834430411458 0.008605246432125568 25.723613739013672 -16.773319244384766 31.45882225036621 65258 25.729385375976562
0.11582815647125244 -0.1958242654800415 9.797808647155762 -0.008492749184370041 -0.0059360028244555 0.00648512551560998 25.422561645507812 -15.764420509338379 30.834972381591797 65259 25.873153686523438
0.09855300188064575 -0.23875382542610168 9.771639823913574 -0.008328625932335854 -0.004617022816091776 0.007092207670211792 25.12915802001953 -15.764121055603027 30.83167266845703 65260 25.873153686523438
